row,subject_id,assigned_condition,rt,key_press,trial_type,trial_index,time_elapsed,internal_node_id,stimulus,button_pressed,correct,phase,responses,value
1,ebgw9db21yybuon,0,274150,32,text,0,274153,0.0-0.0,NULL,NULL,NULL,NULL,NULL,NULL
2,ebgw9db21yybuon,0,10963,NULL,button-response,1,285119,0.0-1.0,"<p>This experiment is being conducted at Vass",0,NULL,NULL,NULL,NULL
3,ebgw9db21yybuon,0,5956,32,text,2,291075,0.0-2.0,NULL,NULL,NULL,NULL,NULL,NULL
4,ebgw9db21yybuon,0,4580,75,single-audio,3,295757,0.0-3.0,sound/checkvolume.mp3,NULL,NULL,NULL,NULL,NULL
5,ebgw9db21yybuon,0,6864,32,text,4,302621,0.0-4.0,NULL,NULL,NULL,NULL,NULL,NULL
6,ebgw9db21yybuon,0,-1000,-1,single-audio,5,517643,0.0-5.0-0.0,sound/Language1/Language1.mp3,NULL,NULL,NULL,NULL,NULL
7,ebgw9db21yybuon,0,-1000,-1,single-audio,6,538396,0.0-5.0-1.0,sound/silence.mp3,NULL,NULL,NULL,NULL,NULL
8,ebgw9db21yybuon,0,-1000,-1,single-audio,7,752411,0.0-5.0-0.1,sound/Language1/Language1.mp3,NULL,NULL,NULL,NULL,NULL
9,ebgw9db21yybuon,0,-1000,-1,single-audio,8,773396,0.0-5.0-1.1,sound/silence.mp3,NULL,NULL,NULL,NULL,NULL
10,ebgw9db21yybuon,0,-1000,-1,single-audio,9,987409,0.0-5.0-0.2,sound/Language1/Language1.mp3,NULL,NULL,NULL,NULL,NULL
11,ebgw9db21yybuon,0,-1000,-1,single-audio,10,1008396,0.0-5.0-1.2,sound/silence.mp3,NULL,NULL,NULL,NULL,NULL
12,ebgw9db21yybuon,0,50345,32,text,11,1058742,0.0-6.0,NULL,NULL,NULL,NULL,NULL,NULL
13,ebgw9db21yybuon,0,-1000,-1,single-audio,12,1061754,0.0-7.0-0.0,sound/Language1/GGsharpA.mp3,NULL,NULL,NULL,NULL,NULL
14,ebgw9db21yybuon,0,-1000,-1,single-audio,13,1063754,0.0-7.0-1.0,sound/Language2/FsharpGsharpE.mp3,NULL,NULL,NULL,NULL,NULL
15,ebgw9db21yybuon,0,807,NULL,button-response,14,1064562,0.0-7.0-2.0,Array,0,1,test,NULL,NULL
16,ebgw9db21yybuon,0,-1000,-1,single-audio,15,1066563,0.0-7.0-0.1,sound/Language1/GGsharpA.mp3,NULL,NULL,NULL,NULL,NULL
17,ebgw9db21yybuon,0,-1000,-1,single-audio,16,1068566,0.0-7.0-1.1,sound/Language2/CsharpFD.mp3,NULL,NULL,NULL,NULL,NULL
18,ebgw9db21yybuon,0,508,NULL,button-response,17,1069075,0.0-7.0-2.1,Array,0,1,test,NULL,NULL
19,ebgw9db21yybuon,0,-1000,-1,single-audio,18,1071084,0.0-7.0-0.2,sound/Language2/CsharpBA.mp3,NULL,NULL,NULL,NULL,NULL
20,ebgw9db21yybuon,0,-1000,-1,single-audio,19,1073090,0.0-7.0-1.2,sound/Language1/ADB.mp3,NULL,NULL,NULL,NULL,NULL
21,ebgw9db21yybuon,0,424,NULL,button-response,20,1073515,0.0-7.0-2.2,Array,1,1,test,NULL,NULL
22,ebgw9db21yybuon,0,-1000,-1,single-audio,21,1075518,0.0-7.0-0.3,sound/Language2/CsharpBA.mp3,NULL,NULL,NULL,NULL,NULL
23,ebgw9db21yybuon,0,-1000,-1,single-audio,22,1077531,0.0-7.0-1.3,sound/Language1/DFE.mp3,NULL,NULL,NULL,NULL,NULL
24,ebgw9db21yybuon,0,624,NULL,button-response,23,1078156,0.0-7.0-2.3,Array,1,1,test,NULL,NULL
25,ebgw9db21yybuon,0,-1000,-1,single-audio,24,1080170,0.0-7.0-0.4,sound/Language1/CCsharpD.mp3,NULL,NULL,NULL,NULL,NULL
26,ebgw9db21yybuon,0,-1000,-1,single-audio,25,1082178,0.0-7.0-1.4,sound/Language2/GsharpBA.mp3,NULL,NULL,NULL,NULL,NULL
27,ebgw9db21yybuon,0,356,NULL,button-response,26,1082534,0.0-7.0-2.4,Array,0,1,test,NULL,NULL
28,ebgw9db21yybuon,0,-1000,-1,single-audio,27,1084544,0.0-7.0-0.5,sound/Language1/DsharpED.mp3,NULL,NULL,NULL,NULL,NULL
29,ebgw9db21yybuon,0,-1000,-1,single-audio,28,1086551,0.0-7.0-1.5,sound/Language2/FsharpGsharpE.mp3,NULL,NULL,NULL,NULL,NULL
30,ebgw9db21yybuon,0,478,NULL,button-response,29,1087030,0.0-7.0-2.5,Array,0,1,test,NULL,NULL
31,ebgw9db21yybuon,0,-1000,-1,single-audio,30,1089044,0.0-7.0-0.6,sound/Language2/GCDsharp.mp3,NULL,NULL,NULL,NULL,NULL
32,ebgw9db21yybuon,0,-1000,-1,single-audio,31,1091050,0.0-7.0-1.6,sound/Language1/FCFsharp.mp3,NULL,NULL,NULL,NULL,NULL
33,ebgw9db21yybuon,0,400,NULL,button-response,32,1091450,0.0-7.0-2.6,Array,1,1,test,NULL,NULL
34,ebgw9db21yybuon,0,-1000,-1,single-audio,33,1093450,0.0-7.0-0.7,sound/Language2/GsharpBA.mp3,NULL,NULL,NULL,NULL,NULL
35,ebgw9db21yybuon,0,-1000,-1,single-audio,34,1095450,0.0-7.0-1.7,sound/Language1/FCFsharp.mp3,NULL,NULL,NULL,NULL,NULL
36,ebgw9db21yybuon,0,589,NULL,button-response,35,1096039,0.0-7.0-2.7,Array,0,0,test,NULL,NULL
37,ebgw9db21yybuon,0,-1000,-1,single-audio,36,1098046,0.0-7.0-0.8,sound/Language2/GCDsharp.mp3,NULL,NULL,NULL,NULL,NULL
38,ebgw9db21yybuon,0,-1000,-1,single-audio,37,1100046,0.0-7.0-1.8,sound/Language1/DsharpED.mp3,NULL,NULL,NULL,NULL,NULL
39,ebgw9db21yybuon,0,1429,NULL,button-response,38,1101476,0.0-7.0-2.8,Array,0,0,test,NULL,NULL
40,ebgw9db21yybuon,0,-1000,-1,single-audio,39,1103479,0.0-7.0-0.9,sound/Language2/ACsharpE.mp3,NULL,NULL,NULL,NULL,NULL
41,ebgw9db21yybuon,0,-1000,-1,single-audio,40,1105479,0.0-7.0-1.9,sound/Language1/ADB.mp3,NULL,NULL,NULL,NULL,NULL
42,ebgw9db21yybuon,0,1198,NULL,button-response,41,1106677,0.0-7.0-2.9,Array,1,1,test,NULL,NULL
43,ebgw9db21yybuon,0,-1000,-1,single-audio,42,1108682,0.0-7.0-0.10,sound/Language1/CCsharpD.mp3,NULL,NULL,NULL,NULL,NULL
44,ebgw9db21yybuon,0,-1000,-1,single-audio,43,1110696,0.0-7.0-1.10,sound/Language2/ACsharpE.mp3,NULL,NULL,NULL,NULL,NULL
45,ebgw9db21yybuon,0,351,NULL,button-response,44,1111047,0.0-7.0-2.10,Array,0,1,test,NULL,NULL
46,ebgw9db21yybuon,0,-1000,-1,single-audio,45,1113057,0.0-7.0-0.11,sound/Language2/GsharpBA.mp3,NULL,NULL,NULL,NULL,NULL
47,ebgw9db21yybuon,0,-1000,-1,single-audio,46,1115069,0.0-7.0-1.11,sound/Language1/ADB.mp3,NULL,NULL,NULL,NULL,NULL
48,ebgw9db21yybuon,0,317,NULL,button-response,47,1115388,0.0-7.0-2.11,Array,0,0,test,NULL,NULL
49,ebgw9db21yybuon,0,-1000,-1,single-audio,48,1117398,0.0-7.0-0.12,sound/Language1/DFE.mp3,NULL,NULL,NULL,NULL,NULL
50,ebgw9db21yybuon,0,-1000,-1,single-audio,49,1119412,0.0-7.0-1.12,sound/Language2/GCDsharp.mp3,NULL,NULL,NULL,NULL,NULL
51,ebgw9db21yybuon,0,423,NULL,button-response,50,1119837,0.0-7.0-2.12,Array,0,1,test,NULL,NULL
52,ebgw9db21yybuon,0,-1000,-1,single-audio,51,1121848,0.0-7.0-0.13,sound/Language2/CsharpFD.mp3,NULL,NULL,NULL,NULL,NULL
53,ebgw9db21yybuon,0,-1000,-1,single-audio,52,1123853,0.0-7.0-1.13,sound/Language1/DFE.mp3,NULL,NULL,NULL,NULL,NULL
54,ebgw9db21yybuon,0,378,NULL,button-response,53,1124232,0.0-7.0-2.13,Array,1,1,test,NULL,NULL
55,ebgw9db21yybuon,0,-1000,-1,single-audio,54,1126232,0.0-7.0-0.14,sound/Language1/DsharpED.mp3,NULL,NULL,NULL,NULL,NULL
56,ebgw9db21yybuon,0,-1000,-1,single-audio,55,1128244,0.0-7.0-1.14,sound/Language2/GsharpBA.mp3,NULL,NULL,NULL,NULL,NULL
57,ebgw9db21yybuon,0,388,NULL,button-response,56,1128632,0.0-7.0-2.14,Array,1,0,test,NULL,NULL
58,ebgw9db21yybuon,0,-1000,-1,single-audio,57,1130632,0.0-7.0-0.15,sound/Language2/FsharpGsharpE.mp3,NULL,NULL,NULL,NULL,NULL
59,ebgw9db21yybuon,0,-1000,-1,single-audio,58,1132643,0.0-7.0-1.15,sound/Language1/DFE.mp3,NULL,NULL,NULL,NULL,NULL
60,ebgw9db21yybuon,0,312,NULL,button-response,59,1132956,0.0-7.0-2.15,Array,1,1,test,NULL,NULL
61,ebgw9db21yybuon,0,-1000,-1,single-audio,60,1134956,0.0-7.0-0.16,sound/Language1/GGsharpA.mp3,NULL,NULL,NULL,NULL,NULL
62,ebgw9db21yybuon,0,-1000,-1,single-audio,61,1136956,0.0-7.0-1.16,sound/Language2/ACsharpE.mp3,NULL,NULL,NULL,NULL,NULL
63,ebgw9db21yybuon,0,442,NULL,button-response,62,1137399,0.0-7.0-2.16,Array,0,1,test,NULL,NULL
64,ebgw9db21yybuon,0,-1000,-1,single-audio,63,1139399,0.0-7.0-0.17,sound/Language2/ACsharpE.mp3,NULL,NULL,NULL,NULL,NULL
65,ebgw9db21yybuon,0,-1000,-1,single-audio,64,1141403,0.0-7.0-1.17,sound/Language1/DFE.mp3,NULL,NULL,NULL,NULL,NULL
66,ebgw9db21yybuon,0,452,NULL,button-response,65,1141856,0.0-7.0-2.17,Array,1,1,test,NULL,NULL
67,ebgw9db21yybuon,0,-1000,-1,single-audio,66,1143857,0.0-7.0-0.18,sound/Language1/FCFsharp.mp3,NULL,NULL,NULL,NULL,NULL
68,ebgw9db21yybuon,0,-1000,-1,single-audio,67,1145863,0.0-7.0-1.18,sound/Language2/ACsharpE.mp3,NULL,NULL,NULL,NULL,NULL
69,ebgw9db21yybuon,0,383,NULL,button-response,68,1146247,0.0-7.0-2.18,Array,0,1,test,NULL,NULL
70,ebgw9db21yybuon,0,-1000,-1,single-audio,69,1148247,0.0-7.0-0.19,sound/Language2/GCDsharp.mp3,NULL,NULL,NULL,NULL,NULL
71,ebgw9db21yybuon,0,-1000,-1,single-audio,70,1150249,0.0-7.0-1.19,sound/Language1/CCsharpD.mp3,NULL,NULL,NULL,NULL,NULL
72,ebgw9db21yybuon,0,399,NULL,button-response,71,1150649,0.0-7.0-2.19,Array,1,1,test,NULL,NULL
73,ebgw9db21yybuon,0,-1000,-1,single-audio,72,1152649,0.0-7.0-0.20,sound/Language1/DsharpED.mp3,NULL,NULL,NULL,NULL,NULL
74,ebgw9db21yybuon,0,-1000,-1,single-audio,73,1154657,0.0-7.0-1.20,sound/Language2/ACsharpE.mp3,NULL,NULL,NULL,NULL,NULL
75,ebgw9db21yybuon,0,328,NULL,button-response,74,1154986,0.0-7.0-2.20,Array,0,1,test,NULL,NULL
76,ebgw9db21yybuon,0,-1000,-1,single-audio,75,1156986,0.0-7.0-0.21,sound/Language2/FsharpGsharpE.mp3,NULL,NULL,NULL,NULL,NULL
77,ebgw9db21yybuon,0,-1000,-1,single-audio,76,1158986,0.0-7.0-1.21,sound/Language1/FCFsharp.mp3,NULL,NULL,NULL,NULL,NULL
78,ebgw9db21yybuon,0,365,NULL,button-response,77,1159351,0.0-7.0-2.21,Array,0,0,test,NULL,NULL
79,ebgw9db21yybuon,0,-1000,-1,single-audio,78,1161360,0.0-7.0-0.22,sound/Language2/FsharpGsharpE.mp3,NULL,NULL,NULL,NULL,NULL
80,ebgw9db21yybuon,0,-1000,-1,single-audio,79,1163360,0.0-7.0-1.22,sound/Language1/ADB.mp3,NULL,NULL,NULL,NULL,NULL
81,ebgw9db21yybuon,0,344,NULL,button-response,80,1163706,0.0-7.0-2.22,Array,0,0,test,NULL,NULL
82,ebgw9db21yybuon,0,-1000,-1,single-audio,81,1165720,0.0-7.0-0.23,sound/Language1/CCsharpD.mp3,NULL,NULL,NULL,NULL,NULL
83,ebgw9db21yybuon,0,-1000,-1,single-audio,82,1167720,0.0-7.0-1.23,sound/Language2/CsharpBA.mp3,NULL,NULL,NULL,NULL,NULL
84,ebgw9db21yybuon,0,318,NULL,button-response,83,1168039,0.0-7.0-2.23,Array,0,1,test,NULL,NULL
85,ebgw9db21yybuon,0,-1000,-1,single-audio,84,1170051,0.0-7.0-0.24,sound/Language1/ADB.mp3,NULL,NULL,NULL,NULL,NULL
86,ebgw9db21yybuon,0,-1000,-1,single-audio,85,1172059,0.0-7.0-1.24,sound/Language2/ACsharpE.mp3,NULL,NULL,NULL,NULL,NULL
87,ebgw9db21yybuon,0,476,NULL,button-response,86,1172535,0.0-7.0-2.24,Array,1,0,test,NULL,NULL
88,ebgw9db21yybuon,0,-1000,-1,single-audio,87,1174535,0.0-7.0-0.25,sound/Language1/GGsharpA.mp3,NULL,NULL,NULL,NULL,NULL
89,ebgw9db21yybuon,0,-1000,-1,single-audio,88,1176535,0.0-7.0-1.25,sound/Language2/GsharpBA.mp3,NULL,NULL,NULL,NULL,NULL
90,ebgw9db21yybuon,0,483,NULL,button-response,89,1177020,0.0-7.0-2.25,Array,0,1,test,NULL,NULL
91,ebgw9db21yybuon,0,-1000,-1,single-audio,90,1179020,0.0-7.0-0.26,sound/Language1/FCFsharp.mp3,NULL,NULL,NULL,NULL,NULL
92,ebgw9db21yybuon,0,-1000,-1,single-audio,91,1181034,0.0-7.0-1.26,sound/Language2/CsharpBA.mp3,NULL,NULL,NULL,NULL,NULL
93,ebgw9db21yybuon,0,361,NULL,button-response,92,1181396,0.0-7.0-2.26,Array,1,0,test,NULL,NULL
94,ebgw9db21yybuon,0,-1000,-1,single-audio,93,1183396,0.0-7.0-0.27,sound/Language2/CsharpFD.mp3,NULL,NULL,NULL,NULL,NULL
95,ebgw9db21yybuon,0,-1000,-1,single-audio,94,1185396,0.0-7.0-1.27,sound/Language1/ADB.mp3,NULL,NULL,NULL,NULL,NULL
96,ebgw9db21yybuon,0,362,NULL,button-response,95,1185759,0.0-7.0-2.27,Array,0,0,test,NULL,NULL
97,ebgw9db21yybuon,0,-1000,-1,single-audio,96,1187760,0.0-7.0-0.28,sound/Language2/CsharpBA.mp3,NULL,NULL,NULL,NULL,NULL
98,ebgw9db21yybuon,0,-1000,-1,single-audio,97,1189774,0.0-7.0-1.28,sound/Language1/DsharpED.mp3,NULL,NULL,NULL,NULL,NULL
99,ebgw9db21yybuon,0,406,NULL,button-response,98,1190181,0.0-7.0-2.28,Array,0,0,test,NULL,NULL
100,ebgw9db21yybuon,0,-1000,-1,single-audio,99,1192191,0.0-7.0-0.29,sound/Language1/CCsharpD.mp3,NULL,NULL,NULL,NULL,NULL
101,ebgw9db21yybuon,0,-1000,-1,single-audio,100,1194198,0.0-7.0-1.29,sound/Language2/FsharpGsharpE.mp3,NULL,NULL,NULL,NULL,NULL
102,ebgw9db21yybuon,0,389,NULL,button-response,101,1194588,0.0-7.0-2.29,Array,1,0,test,NULL,NULL
103,ebgw9db21yybuon,0,-1000,-1,single-audio,102,1196589,0.0-7.0-0.30,sound/Language1/GGsharpA.mp3,NULL,NULL,NULL,NULL,NULL
104,ebgw9db21yybuon,0,-1000,-1,single-audio,103,1198592,0.0-7.0-1.30,sound/Language2/GCDsharp.mp3,NULL,NULL,NULL,NULL,NULL
105,ebgw9db21yybuon,0,336,NULL,button-response,104,1198929,0.0-7.0-2.30,Array,0,1,test,NULL,NULL
106,ebgw9db21yybuon,0,-1000,-1,single-audio,105,1200943,0.0-7.0-0.31,sound/Language2/CsharpBA.mp3,NULL,NULL,NULL,NULL,NULL
107,ebgw9db21yybuon,0,-1000,-1,single-audio,106,1202947,0.0-7.0-1.31,sound/Language1/GGsharpA.mp3,NULL,NULL,NULL,NULL,NULL
108,ebgw9db21yybuon,0,372,NULL,button-response,107,1203320,0.0-7.0-2.31,Array,1,1,test,NULL,NULL
109,ebgw9db21yybuon,0,-1000,-1,single-audio,108,1205333,0.0-7.0-0.32,sound/Language1/CCsharpD.mp3,NULL,NULL,NULL,NULL,NULL
110,ebgw9db21yybuon,0,-1000,-1,single-audio,109,1207337,0.0-7.0-1.32,sound/Language2/CsharpFD.mp3,NULL,NULL,NULL,NULL,NULL
111,ebgw9db21yybuon,0,848,NULL,button-response,110,1208186,0.0-7.0-2.32,Array,1,0,test,NULL,NULL
112,ebgw9db21yybuon,0,-1000,-1,single-audio,111,1210186,0.0-7.0-0.33,sound/Language1/DsharpED.mp3,NULL,NULL,NULL,NULL,NULL
113,ebgw9db21yybuon,0,-1000,-1,single-audio,112,1212192,0.0-7.0-1.33,sound/Language2/CsharpFD.mp3,NULL,NULL,NULL,NULL,NULL
114,ebgw9db21yybuon,0,363,NULL,button-response,113,1212555,0.0-7.0-2.33,Array,1,0,test,NULL,NULL
115,ebgw9db21yybuon,0,-1000,-1,single-audio,114,1214556,0.0-7.0-0.34,sound/Language1/FCFsharp.mp3,NULL,NULL,NULL,NULL,NULL
116,ebgw9db21yybuon,0,-1000,-1,single-audio,115,1216562,0.0-7.0-1.34,sound/Language2/CsharpFD.mp3,NULL,NULL,NULL,NULL,NULL
117,ebgw9db21yybuon,0,323,NULL,button-response,116,1216885,0.0-7.0-2.34,Array,1,0,test,NULL,NULL
118,ebgw9db21yybuon,0,-1000,-1,single-audio,117,1218885,0.0-7.0-0.35,sound/Language1/DFE.mp3,NULL,NULL,NULL,NULL,NULL
119,ebgw9db21yybuon,0,-1000,-1,single-audio,118,1220885,0.0-7.0-1.35,sound/Language2/GsharpBA.mp3,NULL,NULL,NULL,NULL,NULL
120,ebgw9db21yybuon,0,336,NULL,button-response,119,1221221,0.0-7.0-2.35,Array,1,0,test,NULL,NULL
121,ebgw9db21yybuon,0,2591,32,text,120,1223812,0.0-8.0,NULL,NULL,NULL,NULL,NULL,NULL
122,ebgw9db21yybuon,0,19393,NULL,survey-text,121,1243207,0.0-9.0,NULL,NULL,NULL,demographics,"{""Q0"":""1992"",""Q1"":""m"",""Q2"":""2"",""Q3"":""none"",""Q4"":""high school band (percussion)""}",NULL
123,njslj5dt2c6wtt9,1,16044,76,text,0,16047,0.0-0.0,NULL,NULL,NULL,NULL,NULL,NULL
124,njslj5dt2c6wtt9,1,2080,NULL,button-response,1,18129,0.0-1.0,"<p>This experiment is being conducted at Vass",0,NULL,NULL,NULL,NULL
125,njslj5dt2c6wtt9,1,11335,32,text,2,29467,0.0-2.0,NULL,NULL,NULL,NULL,NULL,NULL
126,njslj5dt2c6wtt9,1,5639,75,single-audio,3,35205,0.0-3.0,sound/checkvolume.mp3,NULL,NULL,NULL,NULL,NULL
127,njslj5dt2c6wtt9,1,14735,32,text,4,49941,0.0-4.0,NULL,NULL,NULL,NULL,NULL,NULL
128,njslj5dt2c6wtt9,1,-1000,-1,single-audio,5,264957,0.0-5.0-0.0,sound/Language2/Language2.mp3,NULL,NULL,NULL,NULL,NULL
129,njslj5dt2c6wtt9,1,-1000,-1,single-audio,6,284959,0.0-5.0-1.0,sound/silence.mp3,NULL,NULL,NULL,NULL,NULL
130,njslj5dt2c6wtt9,1,-1000,-1,single-audio,7,498973,0.0-5.0-0.1,sound/Language2/Language2.mp3,NULL,NULL,NULL,NULL,NULL
131,njslj5dt2c6wtt9,1,-1000,-1,single-audio,8,518974,0.0-5.0-1.1,sound/silence.mp3,NULL,NULL,NULL,NULL,NULL
132,njslj5dt2c6wtt9,1,-1000,-1,single-audio,9,732989,0.0-5.0-0.2,sound/Language2/Language2.mp3,NULL,NULL,NULL,NULL,NULL
133,njslj5dt2c6wtt9,1,-1000,-1,single-audio,10,752991,0.0-5.0-1.2,sound/silence.mp3,NULL,NULL,NULL,NULL,NULL
134,njslj5dt2c6wtt9,1,59671,32,text,11,812663,0.0-6.0,NULL,NULL,NULL,NULL,NULL,NULL
135,njslj5dt2c6wtt9,1,-1000,-1,single-audio,12,815666,0.0-7.0-0.0,sound/Language2/ACsharpE.mp3,NULL,NULL,NULL,NULL,NULL
136,njslj5dt2c6wtt9,1,-1000,-1,single-audio,13,817668,0.0-7.0-1.0,sound/Language1/GGsharpA.mp3,NULL,NULL,NULL,NULL,NULL
137,njslj5dt2c6wtt9,1,1710,NULL,button-response,14,819379,0.0-7.0-2.0,Array,0,1,test,NULL,NULL
138,njslj5dt2c6wtt9,1,-1000,-1,single-audio,15,821381,0.0-7.0-0.1,sound/Language1/CCsharpD.mp3,NULL,NULL,NULL,NULL,NULL
139,njslj5dt2c6wtt9,1,-1000,-1,single-audio,16,823382,0.0-7.0-1.1,sound/Language2/GCDsharp.mp3,NULL,NULL,NULL,NULL,NULL
140,njslj5dt2c6wtt9,1,504,NULL,button-response,17,823887,0.0-7.0-2.1,Array,1,1,test,NULL,NULL
141,njslj5dt2c6wtt9,1,-1000,-1,single-audio,18,825888,0.0-7.0-0.2,sound/Language2/GsharpBA.mp3,NULL,NULL,NULL,NULL,NULL
142,njslj5dt2c6wtt9,1,-1000,-1,single-audio,19,827889,0.0-7.0-1.2,sound/Language1/DFE.mp3,NULL,NULL,NULL,NULL,NULL
143,njslj5dt2c6wtt9,1,499,NULL,button-response,20,828390,0.0-7.0-2.2,Array,1,0,test,NULL,NULL
144,njslj5dt2c6wtt9,1,-1000,-1,single-audio,21,830390,0.0-7.0-0.3,sound/Language2/GCDsharp.mp3,NULL,NULL,NULL,NULL,NULL
145,njslj5dt2c6wtt9,1,-1000,-1,single-audio,22,832392,0.0-7.0-1.3,sound/Language1/GGsharpA.mp3,NULL,NULL,NULL,NULL,NULL
146,njslj5dt2c6wtt9,1,376,NULL,button-response,23,832770,0.0-7.0-2.3,Array,0,1,test,NULL,NULL
147,njslj5dt2c6wtt9,1,-1000,-1,single-audio,24,834771,0.0-7.0-0.4,sound/Language1/ADB.mp3,NULL,NULL,NULL,NULL,NULL
148,njslj5dt2c6wtt9,1,-1000,-1,single-audio,25,836772,0.0-7.0-1.4,sound/Language2/GsharpBA.mp3,NULL,NULL,NULL,NULL,NULL
149,njslj5dt2c6wtt9,1,386,NULL,button-response,26,837160,0.0-7.0-2.4,Array,1,1,test,NULL,NULL
150,njslj5dt2c6wtt9,1,-1000,-1,single-audio,27,839186,0.0-7.0-0.5,sound/Language1/GGsharpA.mp3,NULL,NULL,NULL,NULL,NULL
151,njslj5dt2c6wtt9,1,-1000,-1,single-audio,28,841188,0.0-7.0-1.5,sound/Language2/FsharpGsharpE.mp3,NULL,NULL,NULL,NULL,NULL
152,njslj5dt2c6wtt9,1,417,NULL,button-response,29,841606,0.0-7.0-2.5,Array,1,1,test,NULL,NULL
153,njslj5dt2c6wtt9,1,-1000,-1,single-audio,30,843700,0.0-7.0-0.6,sound/Language2/CsharpBA.mp3,NULL,NULL,NULL,NULL,NULL
154,njslj5dt2c6wtt9,1,-1000,-1,single-audio,31,845702,0.0-7.0-1.6,sound/Language1/GGsharpA.mp3,NULL,NULL,NULL,NULL,NULL
155,njslj5dt2c6wtt9,1,408,NULL,button-response,32,846111,0.0-7.0-2.6,Array,0,1,test,NULL,NULL
156,njslj5dt2c6wtt9,1,-1000,-1,single-audio,33,848112,0.0-7.0-0.7,sound/Language2/CsharpBA.mp3,NULL,NULL,NULL,NULL,NULL
157,njslj5dt2c6wtt9,1,-1000,-1,single-audio,34,850114,0.0-7.0-1.7,sound/Language1/CCsharpD.mp3,NULL,NULL,NULL,NULL,NULL
158,njslj5dt2c6wtt9,1,406,NULL,button-response,35,850522,0.0-7.0-2.7,Array,0,1,test,NULL,NULL
159,njslj5dt2c6wtt9,1,-1000,-1,single-audio,36,852523,0.0-7.0-0.8,sound/Language2/FsharpGsharpE.mp3,NULL,NULL,NULL,NULL,NULL
160,njslj5dt2c6wtt9,1,-1000,-1,single-audio,37,854524,0.0-7.0-1.8,sound/Language1/DsharpED.mp3,NULL,NULL,NULL,NULL,NULL
161,njslj5dt2c6wtt9,1,429,NULL,button-response,38,854954,0.0-7.0-2.8,Array,0,1,test,NULL,NULL
162,njslj5dt2c6wtt9,1,-1000,-1,single-audio,39,856955,0.0-7.0-0.9,sound/Language2/ACsharpE.mp3,NULL,NULL,NULL,NULL,NULL
163,njslj5dt2c6wtt9,1,-1000,-1,single-audio,40,858956,0.0-7.0-1.9,sound/Language1/DFE.mp3,NULL,NULL,NULL,NULL,NULL
164,njslj5dt2c6wtt9,1,201,NULL,button-response,41,859158,0.0-7.0-2.9,Array,0,1,test,NULL,NULL
165,njslj5dt2c6wtt9,1,-1000,-1,single-audio,42,861159,0.0-7.0-0.10,sound/Language1/CCsharpD.mp3,NULL,NULL,NULL,NULL,NULL
166,njslj5dt2c6wtt9,1,-1000,-1,single-audio,43,863161,0.0-7.0-1.10,sound/Language2/FsharpGsharpE.mp3,NULL,NULL,NULL,NULL,NULL
167,njslj5dt2c6wtt9,1,332,NULL,button-response,44,863494,0.0-7.0-2.10,Array,1,1,test,NULL,NULL
168,njslj5dt2c6wtt9,1,-1000,-1,single-audio,45,865495,0.0-7.0-0.11,sound/Language1/DsharpED.mp3,NULL,NULL,NULL,NULL,NULL
169,njslj5dt2c6wtt9,1,-1000,-1,single-audio,46,867496,0.0-7.0-1.11,sound/Language2/GsharpBA.mp3,NULL,NULL,NULL,NULL,NULL
170,njslj5dt2c6wtt9,1,327,NULL,button-response,47,867824,0.0-7.0-2.11,Array,1,1,test,NULL,NULL
171,njslj5dt2c6wtt9,1,-1000,-1,single-audio,48,869826,0.0-7.0-0.12,sound/Language2/FsharpGsharpE.mp3,NULL,NULL,NULL,NULL,NULL
172,njslj5dt2c6wtt9,1,-1000,-1,single-audio,49,871827,0.0-7.0-1.12,sound/Language1/ADB.mp3,NULL,NULL,NULL,NULL,NULL
173,njslj5dt2c6wtt9,1,1000,NULL,button-response,50,872828,0.0-7.0-2.12,Array,1,0,test,NULL,NULL
174,njslj5dt2c6wtt9,1,-1000,-1,single-audio,51,874829,0.0-7.0-0.13,sound/Language1/GGsharpA.mp3,NULL,NULL,NULL,NULL,NULL
175,njslj5dt2c6wtt9,1,-1000,-1,single-audio,52,876830,0.0-7.0-1.13,sound/Language2/GsharpBA.mp3,NULL,NULL,NULL,NULL,NULL
176,njslj5dt2c6wtt9,1,804,NULL,button-response,53,877635,0.0-7.0-2.13,Array,1,1,test,NULL,NULL
177,njslj5dt2c6wtt9,1,-1000,-1,single-audio,54,879636,0.0-7.0-0.14,sound/Language2/CsharpFD.mp3,NULL,NULL,NULL,NULL,NULL
178,njslj5dt2c6wtt9,1,-1000,-1,single-audio,55,881636,0.0-7.0-1.14,sound/Language1/DsharpED.mp3,NULL,NULL,NULL,NULL,NULL
179,njslj5dt2c6wtt9,1,427,NULL,button-response,56,882065,0.0-7.0-2.14,Array,0,1,test,NULL,NULL
180,njslj5dt2c6wtt9,1,-1000,-1,single-audio,57,884067,0.0-7.0-0.15,sound/Language2/GsharpBA.mp3,NULL,NULL,NULL,NULL,NULL
181,njslj5dt2c6wtt9,1,-1000,-1,single-audio,58,886068,0.0-7.0-1.15,sound/Language1/FCFsharp.mp3,NULL,NULL,NULL,NULL,NULL
182,njslj5dt2c6wtt9,1,402,NULL,button-response,59,886470,0.0-7.0-2.15,Array,0,1,test,NULL,NULL
183,njslj5dt2c6wtt9,1,-1000,-1,single-audio,60,888471,0.0-7.0-0.16,sound/Language1/DFE.mp3,NULL,NULL,NULL,NULL,NULL
184,njslj5dt2c6wtt9,1,-1000,-1,single-audio,61,890472,0.0-7.0-1.16,sound/Language2/FsharpGsharpE.mp3,NULL,NULL,NULL,NULL,NULL
185,njslj5dt2c6wtt9,1,533,NULL,button-response,62,891006,0.0-7.0-2.16,Array,0,0,test,NULL,NULL
186,njslj5dt2c6wtt9,1,-1000,-1,single-audio,63,893008,0.0-7.0-0.17,sound/Language1/DFE.mp3,NULL,NULL,NULL,NULL,NULL
187,njslj5dt2c6wtt9,1,-1000,-1,single-audio,64,895009,0.0-7.0-1.17,sound/Language2/CsharpBA.mp3,NULL,NULL,NULL,NULL,NULL
188,njslj5dt2c6wtt9,1,426,NULL,button-response,65,895435,0.0-7.0-2.17,Array,1,1,test,NULL,NULL
189,njslj5dt2c6wtt9,1,-1000,-1,single-audio,66,897436,0.0-7.0-0.18,sound/Language2/FsharpGsharpE.mp3,NULL,NULL,NULL,NULL,NULL
190,njslj5dt2c6wtt9,1,-1000,-1,single-audio,67,899437,0.0-7.0-1.18,sound/Language1/FCFsharp.mp3,NULL,NULL,NULL,NULL,NULL
191,njslj5dt2c6wtt9,1,330,NULL,button-response,68,899768,0.0-7.0-2.18,Array,0,1,test,NULL,NULL
192,njslj5dt2c6wtt9,1,-1000,-1,single-audio,69,901769,0.0-7.0-0.19,sound/Language2/ACsharpE.mp3,NULL,NULL,NULL,NULL,NULL
193,njslj5dt2c6wtt9,1,-1000,-1,single-audio,70,903771,0.0-7.0-1.19,sound/Language1/ADB.mp3,NULL,NULL,NULL,NULL,NULL
194,njslj5dt2c6wtt9,1,765,NULL,button-response,71,904536,0.0-7.0-2.19,Array,1,0,test,NULL,NULL
195,njslj5dt2c6wtt9,1,-1000,-1,single-audio,72,906537,0.0-7.0-0.20,sound/Language2/ACsharpE.mp3,NULL,NULL,NULL,NULL,NULL
196,njslj5dt2c6wtt9,1,-1000,-1,single-audio,73,908538,0.0-7.0-1.20,sound/Language1/DsharpED.mp3,NULL,NULL,NULL,NULL,NULL
197,njslj5dt2c6wtt9,1,448,NULL,button-response,74,908987,0.0-7.0-2.20,Array,0,1,test,NULL,NULL
198,njslj5dt2c6wtt9,1,-1000,-1,single-audio,75,910987,0.0-7.0-0.21,sound/Language1/CCsharpD.mp3,NULL,NULL,NULL,NULL,NULL
199,njslj5dt2c6wtt9,1,-1000,-1,single-audio,76,912988,0.0-7.0-1.21,sound/Language2/GsharpBA.mp3,NULL,NULL,NULL,NULL,NULL
200,njslj5dt2c6wtt9,1,483,NULL,button-response,77,913472,0.0-7.0-2.21,Array,1,1,test,NULL,NULL
201,njslj5dt2c6wtt9,1,-1000,-1,single-audio,78,915473,0.0-7.0-0.22,sound/Language2/CsharpFD.mp3,NULL,NULL,NULL,NULL,NULL
202,njslj5dt2c6wtt9,1,-1000,-1,single-audio,79,917475,0.0-7.0-1.22,sound/Language1/CCsharpD.mp3,NULL,NULL,NULL,NULL,NULL
203,njslj5dt2c6wtt9,1,569,NULL,button-response,80,918045,0.0-7.0-2.22,Array,0,1,test,NULL,NULL
204,njslj5dt2c6wtt9,1,-1000,-1,single-audio,81,920046,0.0-7.0-0.23,sound/Language2/CsharpBA.mp3,NULL,NULL,NULL,NULL,NULL
205,njslj5dt2c6wtt9,1,-1000,-1,single-audio,82,922048,0.0-7.0-1.23,sound/Language1/ADB.mp3,NULL,NULL,NULL,NULL,NULL
206,njslj5dt2c6wtt9,1,886,NULL,button-response,83,922934,0.0-7.0-2.23,Array,1,0,test,NULL,NULL
207,njslj5dt2c6wtt9,1,-1000,-1,single-audio,84,924936,0.0-7.0-0.24,sound/Language2/CsharpFD.mp3,NULL,NULL,NULL,NULL,NULL
208,njslj5dt2c6wtt9,1,-1000,-1,single-audio,85,926939,0.0-7.0-1.24,sound/Language1/GGsharpA.mp3,NULL,NULL,NULL,NULL,NULL
209,njslj5dt2c6wtt9,1,710,NULL,button-response,86,927650,0.0-7.0-2.24,Array,0,1,test,NULL,NULL
210,njslj5dt2c6wtt9,1,-1000,-1,single-audio,87,929652,0.0-7.0-0.25,sound/Language2/CsharpBA.mp3,NULL,NULL,NULL,NULL,NULL
211,njslj5dt2c6wtt9,1,-1000,-1,single-audio,88,931654,0.0-7.0-1.25,sound/Language1/FCFsharp.mp3,NULL,NULL,NULL,NULL,NULL
212,njslj5dt2c6wtt9,1,375,NULL,button-response,89,932030,0.0-7.0-2.25,Array,0,1,test,NULL,NULL
213,njslj5dt2c6wtt9,1,-1000,-1,single-audio,90,934031,0.0-7.0-0.26,sound/Language1/ADB.mp3,NULL,NULL,NULL,NULL,NULL
214,njslj5dt2c6wtt9,1,-1000,-1,single-audio,91,936033,0.0-7.0-1.26,sound/Language1/CCsharpD.mp3,NULL,NULL,NULL,NULL,NULL
215,njslj5dt2c6wtt9,1,495,NULL,button-response,92,936529,0.0-7.0-2.26,Array,0,0,test,NULL,NULL
216,njslj5dt2c6wtt9,1,-1000,-1,single-audio,93,938530,0.0-7.0-0.27,sound/Language1/FCFsharp.mp3,NULL,NULL,NULL,NULL,NULL
217,njslj5dt2c6wtt9,1,-1000,-1,single-audio,94,940531,0.0-7.0-1.27,sound/Language2/CsharpFD.mp3,NULL,NULL,NULL,NULL,NULL
218,njslj5dt2c6wtt9,1,422,NULL,button-response,95,940954,0.0-7.0-2.27,Array,1,1,test,NULL,NULL
219,njslj5dt2c6wtt9,1,-1000,-1,single-audio,96,942955,0.0-7.0-0.28,sound/Language2/CsharpFD.mp3,NULL,NULL,NULL,NULL,NULL
220,njslj5dt2c6wtt9,1,-1000,-1,single-audio,97,944957,0.0-7.0-1.28,sound/Language1/ADB.mp3,NULL,NULL,NULL,NULL,NULL
221,njslj5dt2c6wtt9,1,357,NULL,button-response,98,945315,0.0-7.0-2.28,Array,0,1,test,NULL,NULL
222,njslj5dt2c6wtt9,1,-1000,-1,single-audio,99,947318,0.0-7.0-0.29,sound/Language1/FCFsharp.mp3,NULL,NULL,NULL,NULL,NULL
223,njslj5dt2c6wtt9,1,-1000,-1,single-audio,100,949319,0.0-7.0-1.29,sound/Language2/ACsharpE.mp3,NULL,NULL,NULL,NULL,NULL
224,njslj5dt2c6wtt9,1,424,NULL,button-response,101,949743,0.0-7.0-2.29,Array,1,1,test,NULL,NULL
225,njslj5dt2c6wtt9,1,-1000,-1,single-audio,102,951744,0.0-7.0-0.30,sound/Language2/CsharpBA.mp3,NULL,NULL,NULL,NULL,NULL
226,njslj5dt2c6wtt9,1,-1000,-1,single-audio,103,953752,0.0-7.0-1.30,sound/Language1/DsharpED.mp3,NULL,NULL,NULL,NULL,NULL
227,njslj5dt2c6wtt9,1,395,NULL,button-response,104,954148,0.0-7.0-2.30,Array,0,1,test,NULL,NULL
228,njslj5dt2c6wtt9,1,-1000,-1,single-audio,105,956149,0.0-7.0-0.31,sound/Language2/GCDsharp.mp3,NULL,NULL,NULL,NULL,NULL
229,njslj5dt2c6wtt9,1,-1000,-1,single-audio,106,958150,0.0-7.0-1.31,sound/Language1/DFE.mp3,NULL,NULL,NULL,NULL,NULL
230,njslj5dt2c6wtt9,1,370,NULL,button-response,107,958520,0.0-7.0-2.31,Array,0,1,test,NULL,NULL
231,njslj5dt2c6wtt9,1,-1000,-1,single-audio,108,960521,0.0-7.0-0.32,sound/Language1/FCFsharp.mp3,NULL,NULL,NULL,NULL,NULL
232,njslj5dt2c6wtt9,1,-1000,-1,single-audio,109,962522,0.0-7.0-1.32,sound/Language2/GCDsharp.mp3,NULL,NULL,NULL,NULL,NULL
233,njslj5dt2c6wtt9,1,342,NULL,button-response,110,962865,0.0-7.0-2.32,Array,0,0,test,NULL,NULL
234,njslj5dt2c6wtt9,1,-1000,-1,single-audio,111,964866,0.0-7.0-0.33,sound/Language1/DFE.mp3,NULL,NULL,NULL,NULL,NULL
235,njslj5dt2c6wtt9,1,-1000,-1,single-audio,112,966867,0.0-7.0-1.33,sound/Language2/CsharpFD.mp3,NULL,NULL,NULL,NULL,NULL
236,njslj5dt2c6wtt9,1,511,NULL,button-response,113,967380,0.0-7.0-2.33,Array,1,1,test,NULL,NULL
237,njslj5dt2c6wtt9,1,-1000,-1,single-audio,114,969381,0.0-7.0-0.34,sound/Language2/ACsharpE.mp3,NULL,NULL,NULL,NULL,NULL
238,njslj5dt2c6wtt9,1,-1000,-1,single-audio,115,971382,0.0-7.0-1.34,sound/Language1/CCsharpD.mp3,NULL,NULL,NULL,NULL,NULL
239,njslj5dt2c6wtt9,1,672,NULL,button-response,116,972055,0.0-7.0-2.34,Array,0,1,test,NULL,NULL
240,njslj5dt2c6wtt9,1,-1000,-1,single-audio,117,974056,0.0-7.0-0.35,sound/Language2/GCDsharp.mp3,NULL,NULL,NULL,NULL,NULL
241,njslj5dt2c6wtt9,1,-1000,-1,single-audio,118,976057,0.0-7.0-1.35,sound/Language1/DsharpED.mp3,NULL,NULL,NULL,NULL,NULL
242,njslj5dt2c6wtt9,1,827,NULL,button-response,119,976884,0.0-7.0-2.35,Array,0,1,test,NULL,NULL
243,njslj5dt2c6wtt9,1,3058,32,text,120,979944,0.0-8.0,NULL,NULL,NULL,NULL,NULL,NULL
244,njslj5dt2c6wtt9,1,27851,NULL,survey-text,121,1007797,0.0-9.0,NULL,NULL,NULL,demographics,"{""Q0"":""1988"",""Q1"":""Female"",""Q2"":""20"",""Q3"":""No problems."",""Q4"":""None.""}",NULL
245,fz8lzr7s4gpvw1n,1,2399,32,text,0,2403,0.0-0.0,NULL,NULL,NULL,NULL,NULL,NULL
246,fz8lzr7s4gpvw1n,1,10676,NULL,button-response,1,13082,0.0-1.0,"<p>This experiment is being conducted at Vass",0,NULL,NULL,NULL,NULL
247,fz8lzr7s4gpvw1n,1,13088,32,text,2,26171,0.0-2.0,NULL,NULL,NULL,NULL,NULL,NULL
248,fz8lzr7s4gpvw1n,1,5124,75,single-audio,3,31393,0.0-3.0,sound/checkvolume.mp3,NULL,NULL,NULL,NULL,NULL
249,fz8lzr7s4gpvw1n,1,24011,32,text,4,55404,0.0-4.0,NULL,NULL,NULL,NULL,NULL,NULL
250,fz8lzr7s4gpvw1n,1,-1000,-1,single-audio,5,270418,0.0-5.0-0.0,sound/Language2/Language2.mp3,NULL,NULL,NULL,NULL,NULL
251,fz8lzr7s4gpvw1n,1,-1000,-1,single-audio,6,290421,0.0-5.0-1.0,sound/silence.mp3,NULL,NULL,NULL,NULL,NULL
252,fz8lzr7s4gpvw1n,1,-1000,-1,single-audio,7,504433,0.0-5.0-0.1,sound/Language2/Language2.mp3,NULL,NULL,NULL,NULL,NULL
253,fz8lzr7s4gpvw1n,1,-1000,-1,single-audio,8,524437,0.0-5.0-1.1,sound/silence.mp3,NULL,NULL,NULL,NULL,NULL
254,fz8lzr7s4gpvw1n,1,-1000,-1,single-audio,9,738449,0.0-5.0-0.2,sound/Language2/Language2.mp3,NULL,NULL,NULL,NULL,NULL
255,fz8lzr7s4gpvw1n,1,-1000,-1,single-audio,10,758453,0.0-5.0-1.2,sound/silence.mp3,NULL,NULL,NULL,NULL,NULL
256,fz8lzr7s4gpvw1n,1,8319,32,text,11,766773,0.0-6.0,NULL,NULL,NULL,NULL,NULL,NULL
257,fz8lzr7s4gpvw1n,1,-1000,-1,single-audio,12,769778,0.0-7.0-0.0,sound/Language2/GCDsharp.mp3,NULL,NULL,NULL,NULL,NULL
258,fz8lzr7s4gpvw1n,1,-1000,-1,single-audio,13,771781,0.0-7.0-1.0,sound/Language1/GGsharpA.mp3,NULL,NULL,NULL,NULL,NULL
259,fz8lzr7s4gpvw1n,1,1062,NULL,button-response,14,772845,0.0-7.0-2.0,Array,0,1,test,NULL,NULL
260,fz8lzr7s4gpvw1n,1,-1000,-1,single-audio,15,774851,0.0-7.0-0.1,sound/Language2/GsharpBA.mp3,NULL,NULL,NULL,NULL,NULL
261,fz8lzr7s4gpvw1n,1,-1000,-1,single-audio,16,776854,0.0-7.0-1.1,sound/Language1/CCsharpD.mp3,NULL,NULL,NULL,NULL,NULL
262,fz8lzr7s4gpvw1n,1,683,NULL,button-response,17,777537,0.0-7.0-2.1,Array,0,1,test,NULL,NULL
263,fz8lzr7s4gpvw1n,1,-1000,-1,single-audio,18,779542,0.0-7.0-0.2,sound/Language2/GCDsharp.mp3,NULL,NULL,NULL,NULL,NULL
264,fz8lzr7s4gpvw1n,1,-1000,-1,single-audio,19,781544,0.0-7.0-1.2,sound/Language2/ACsharpE.mp3,NULL,NULL,NULL,NULL,NULL
265,fz8lzr7s4gpvw1n,1,789,NULL,button-response,20,782334,0.0-7.0-2.2,Array,1,0,test,NULL,NULL
266,fz8lzr7s4gpvw1n,1,-1000,-1,single-audio,21,784337,0.0-7.0-0.3,sound/Language2/FsharpGsharpE.mp3,NULL,NULL,NULL,NULL,NULL
267,fz8lzr7s4gpvw1n,1,-1000,-1,single-audio,22,786338,0.0-7.0-1.3,sound/Language1/GGsharpA.mp3,NULL,NULL,NULL,NULL,NULL
268,fz8lzr7s4gpvw1n,1,644,NULL,button-response,23,786984,0.0-7.0-2.3,Array,0,1,test,NULL,NULL
269,fz8lzr7s4gpvw1n,1,-1000,-1,single-audio,24,788986,0.0-7.0-0.4,sound/Language2/CsharpFD.mp3,NULL,NULL,NULL,NULL,NULL
270,fz8lzr7s4gpvw1n,1,-1000,-1,single-audio,25,790988,0.0-7.0-1.4,sound/Language1/CCsharpD.mp3,NULL,NULL,NULL,NULL,NULL
271,fz8lzr7s4gpvw1n,1,624,NULL,button-response,26,791614,0.0-7.0-2.4,Array,0,1,test,NULL,NULL
272,fz8lzr7s4gpvw1n,1,-1000,-1,single-audio,27,793616,0.0-7.0-0.5,sound/Language2/ACsharpE.mp3,NULL,NULL,NULL,NULL,NULL
273,fz8lzr7s4gpvw1n,1,-1000,-1,single-audio,28,795618,0.0-7.0-1.5,sound/Language1/FCFsharp.mp3,NULL,NULL,NULL,NULL,NULL
274,fz8lzr7s4gpvw1n,1,656,NULL,button-response,29,796275,0.0-7.0-2.5,Array,0,1,test,NULL,NULL
275,fz8lzr7s4gpvw1n,1,-1000,-1,single-audio,30,798279,0.0-7.0-0.6,sound/Language2/ACsharpE.mp3,NULL,NULL,NULL,NULL,NULL
276,fz8lzr7s4gpvw1n,1,-1000,-1,single-audio,31,800280,0.0-7.0-1.6,sound/Language1/GGsharpA.mp3,NULL,NULL,NULL,NULL,NULL
277,fz8lzr7s4gpvw1n,1,685,NULL,button-response,32,800967,0.0-7.0-2.6,Array,0,1,test,NULL,NULL
278,fz8lzr7s4gpvw1n,1,-1000,-1,single-audio,33,802970,0.0-7.0-0.7,sound/Language1/GGsharpA.mp3,NULL,NULL,NULL,NULL,NULL
279,fz8lzr7s4gpvw1n,1,-1000,-1,single-audio,34,804972,0.0-7.0-1.7,sound/Language2/CsharpBA.mp3,NULL,NULL,NULL,NULL,NULL
280,fz8lzr7s4gpvw1n,1,476,NULL,button-response,35,805450,0.0-7.0-2.7,Array,1,1,test,NULL,NULL
281,fz8lzr7s4gpvw1n,1,-1000,-1,single-audio,36,807451,0.0-7.0-0.8,sound/Language1/GGsharpA.mp3,NULL,NULL,NULL,NULL,NULL
282,fz8lzr7s4gpvw1n,1,-1000,-1,single-audio,37,809454,0.0-7.0-1.8,sound/Language2/CsharpFD.mp3,NULL,NULL,NULL,NULL,NULL
283,fz8lzr7s4gpvw1n,1,664,NULL,button-response,38,810119,0.0-7.0-2.8,Array,1,1,test,NULL,NULL
284,fz8lzr7s4gpvw1n,1,-1000,-1,single-audio,39,812124,0.0-7.0-0.9,sound/Language1/DsharpED.mp3,NULL,NULL,NULL,NULL,NULL
285,fz8lzr7s4gpvw1n,1,-1000,-1,single-audio,40,814125,0.0-7.0-1.9,sound/Language2/GsharpBA.mp3,NULL,NULL,NULL,NULL,NULL
286,fz8lzr7s4gpvw1n,1,640,NULL,button-response,41,814767,0.0-7.0-2.9,Array,1,1,test,NULL,NULL
287,fz8lzr7s4gpvw1n,1,-1000,-1,single-audio,42,816770,0.0-7.0-0.10,sound/Language1/FCFsharp.mp3,NULL,NULL,NULL,NULL,NULL
288,fz8lzr7s4gpvw1n,1,-1000,-1,single-audio,43,818772,0.0-7.0-1.10,sound/Language2/GCDsharp.mp3,NULL,NULL,NULL,NULL,NULL
289,fz8lzr7s4gpvw1n,1,1062,NULL,button-response,44,819834,0.0-7.0-2.10,Array,0,0,test,NULL,NULL
290,fz8lzr7s4gpvw1n,1,-1000,-1,single-audio,45,821836,0.0-7.0-0.11,sound/Language2/FsharpGsharpE.mp3,NULL,NULL,NULL,NULL,NULL
291,fz8lzr7s4gpvw1n,1,-1000,-1,single-audio,46,823840,0.0-7.0-1.11,sound/Language1/DsharpED.mp3,NULL,NULL,NULL,NULL,NULL
292,fz8lzr7s4gpvw1n,1,566,NULL,button-response,47,824408,0.0-7.0-2.11,Array,0,1,test,NULL,NULL
293,fz8lzr7s4gpvw1n,1,-1000,-1,single-audio,48,826410,0.0-7.0-0.12,sound/Language1/CCsharpD.mp3,NULL,NULL,NULL,NULL,NULL
294,fz8lzr7s4gpvw1n,1,-1000,-1,single-audio,49,828412,0.0-7.0-1.12,sound/Language2/ACsharpE.mp3,NULL,NULL,NULL,NULL,NULL
295,fz8lzr7s4gpvw1n,1,734,NULL,button-response,50,829148,0.0-7.0-2.12,Array,1,1,test,NULL,NULL
296,fz8lzr7s4gpvw1n,1,-1000,-1,single-audio,51,831152,0.0-7.0-0.13,sound/Language2/GCDsharp.mp3,NULL,NULL,NULL,NULL,NULL
297,fz8lzr7s4gpvw1n,1,-1000,-1,single-audio,52,833153,0.0-7.0-1.13,sound/Language1/DFE.mp3,NULL,NULL,NULL,NULL,NULL
298,fz8lzr7s4gpvw1n,1,1941,NULL,button-response,53,835096,0.0-7.0-2.13,Array,1,0,test,NULL,NULL
299,fz8lzr7s4gpvw1n,1,-1000,-1,single-audio,54,837100,0.0-7.0-0.14,sound/Language1/FCFsharp.mp3,NULL,NULL,NULL,NULL,NULL
300,fz8lzr7s4gpvw1n,1,-1000,-1,single-audio,55,839102,0.0-7.0-1.14,sound/Language2/CsharpFD.mp3,NULL,NULL,NULL,NULL,NULL
301,fz8lzr7s4gpvw1n,1,537,NULL,button-response,56,839641,0.0-7.0-2.14,Array,1,1,test,NULL,NULL
302,fz8lzr7s4gpvw1n,1,-1000,-1,single-audio,57,841642,0.0-7.0-0.15,sound/Language1/CCsharpD.mp3,NULL,NULL,NULL,NULL,NULL
303,fz8lzr7s4gpvw1n,1,-1000,-1,single-audio,58,843645,0.0-7.0-1.15,sound/Language2/CsharpBA.mp3,NULL,NULL,NULL,NULL,NULL
304,fz8lzr7s4gpvw1n,1,612,NULL,button-response,59,844259,0.0-7.0-2.15,Array,1,1,test,NULL,NULL
305,fz8lzr7s4gpvw1n,1,-1000,-1,single-audio,60,846263,0.0-7.0-0.16,sound/Language1/DFE.mp3,NULL,NULL,NULL,NULL,NULL
306,fz8lzr7s4gpvw1n,1,-1000,-1,single-audio,61,848265,0.0-7.0-1.16,sound/Language2/CsharpFD.mp3,NULL,NULL,NULL,NULL,NULL
307,fz8lzr7s4gpvw1n,1,420,NULL,button-response,62,848686,0.0-7.0-2.16,Array,1,1,test,NULL,NULL
308,fz8lzr7s4gpvw1n,1,-1000,-1,single-audio,63,850691,0.0-7.0-0.17,sound/Language2/CsharpFD.mp3,NULL,NULL,NULL,NULL,NULL
309,fz8lzr7s4gpvw1n,1,-1000,-1,single-audio,64,852694,0.0-7.0-1.17,sound/Language1/ADB.mp3,NULL,NULL,NULL,NULL,NULL
310,fz8lzr7s4gpvw1n,1,655,NULL,button-response,65,853350,0.0-7.0-2.17,Array,0,1,test,NULL,NULL
311,fz8lzr7s4gpvw1n,1,-1000,-1,single-audio,66,855353,0.0-7.0-0.18,sound/Language2/ACsharpE.mp3,NULL,NULL,NULL,NULL,NULL
312,fz8lzr7s4gpvw1n,1,-1000,-1,single-audio,67,857355,0.0-7.0-1.18,sound/Language1/DsharpED.mp3,NULL,NULL,NULL,NULL,NULL
313,fz8lzr7s4gpvw1n,1,316,NULL,button-response,68,857673,0.0-7.0-2.18,Array,0,1,test,NULL,NULL
314,fz8lzr7s4gpvw1n,1,-1000,-1,single-audio,69,859677,0.0-7.0-0.19,sound/Language1/CCsharpD.mp3,NULL,NULL,NULL,NULL,NULL
315,fz8lzr7s4gpvw1n,1,-1000,-1,single-audio,70,861680,0.0-7.0-1.19,sound/Language2/GCDsharp.mp3,NULL,NULL,NULL,NULL,NULL
316,fz8lzr7s4gpvw1n,1,385,NULL,button-response,71,862066,0.0-7.0-2.19,Array,1,1,test,NULL,NULL
317,fz8lzr7s4gpvw1n,1,-1000,-1,single-audio,72,864071,0.0-7.0-0.20,sound/Language2/FsharpGsharpE.mp3,NULL,NULL,NULL,NULL,NULL
318,fz8lzr7s4gpvw1n,1,-1000,-1,single-audio,73,866074,0.0-7.0-1.20,sound/Language1/DFE.mp3,NULL,NULL,NULL,NULL,NULL
319,fz8lzr7s4gpvw1n,1,444,NULL,button-response,74,866518,0.0-7.0-2.20,Array,0,1,test,NULL,NULL
320,fz8lzr7s4gpvw1n,1,-1000,-1,single-audio,75,868519,0.0-7.0-0.21,sound/Language2/CsharpBA.mp3,NULL,NULL,NULL,NULL,NULL
321,fz8lzr7s4gpvw1n,1,-1000,-1,single-audio,76,870520,0.0-7.0-1.21,sound/Language1/FCFsharp.mp3,NULL,NULL,NULL,NULL,NULL
322,fz8lzr7s4gpvw1n,1,504,NULL,button-response,77,871025,0.0-7.0-2.21,Array,1,0,test,NULL,NULL
323,fz8lzr7s4gpvw1n,1,-1000,-1,single-audio,78,873028,0.0-7.0-0.22,sound/Language2/CsharpBA.mp3,NULL,NULL,NULL,NULL,NULL
324,fz8lzr7s4gpvw1n,1,-1000,-1,single-audio,79,875029,0.0-7.0-1.22,sound/Language1/DsharpED.mp3,NULL,NULL,NULL,NULL,NULL
325,fz8lzr7s4gpvw1n,1,370,NULL,button-response,80,875401,0.0-7.0-2.22,Array,0,1,test,NULL,NULL
326,fz8lzr7s4gpvw1n,1,-1000,-1,single-audio,81,877405,0.0-7.0-0.23,sound/Language2/CsharpFD.mp3,NULL,NULL,NULL,NULL,NULL
327,fz8lzr7s4gpvw1n,1,-1000,-1,single-audio,82,879408,0.0-7.0-1.23,sound/Language1/DsharpED.mp3,NULL,NULL,NULL,NULL,NULL
328,fz8lzr7s4gpvw1n,1,216,NULL,button-response,83,879625,0.0-7.0-2.23,Array,0,1,test,NULL,NULL
329,fz8lzr7s4gpvw1n,1,-1000,-1,single-audio,84,881631,0.0-7.0-0.24,sound/Language2/FsharpGsharpE.mp3,NULL,NULL,NULL,NULL,NULL
330,fz8lzr7s4gpvw1n,1,-1000,-1,single-audio,85,883634,0.0-7.0-1.24,sound/Language1/ADB.mp3,NULL,NULL,NULL,NULL,NULL
331,fz8lzr7s4gpvw1n,1,405,NULL,button-response,86,884039,0.0-7.0-2.24,Array,0,1,test,NULL,NULL
332,fz8lzr7s4gpvw1n,1,-1000,-1,single-audio,87,886043,0.0-7.0-0.25,sound/Language2/GsharpBA.mp3,NULL,NULL,NULL,NULL,NULL
333,fz8lzr7s4gpvw1n,1,-1000,-1,single-audio,88,888045,0.0-7.0-1.25,sound/Language1/DFE.mp3,NULL,NULL,NULL,NULL,NULL
334,fz8lzr7s4gpvw1n,1,174,NULL,button-response,89,888221,0.0-7.0-2.25,Array,0,1,test,NULL,NULL
335,fz8lzr7s4gpvw1n,1,-1000,-1,single-audio,90,890222,0.0-7.0-0.26,sound/Language1/ADB.mp3,NULL,NULL,NULL,NULL,NULL
336,fz8lzr7s4gpvw1n,1,-1000,-1,single-audio,91,892225,0.0-7.0-1.26,sound/Language2/GsharpBA.mp3,NULL,NULL,NULL,NULL,NULL
337,fz8lzr7s4gpvw1n,1,518,NULL,button-response,92,892744,0.0-7.0-2.26,Array,1,1,test,NULL,NULL
338,fz8lzr7s4gpvw1n,1,-1000,-1,single-audio,93,894750,0.0-7.0-0.27,sound/Language1/DsharpED.mp3,NULL,NULL,NULL,NULL,NULL
339,fz8lzr7s4gpvw1n,1,-1000,-1,single-audio,94,896752,0.0-7.0-1.27,sound/Language2/GCDsharp.mp3,NULL,NULL,NULL,NULL,NULL
340,fz8lzr7s4gpvw1n,1,392,NULL,button-response,95,897145,0.0-7.0-2.27,Array,1,1,test,NULL,NULL
341,fz8lzr7s4gpvw1n,1,-1000,-1,single-audio,96,899150,0.0-7.0-0.28,sound/Language1/DFE.mp3,NULL,NULL,NULL,NULL,NULL
342,fz8lzr7s4gpvw1n,1,-1000,-1,single-audio,97,901151,0.0-7.0-1.28,sound/Language2/ACsharpE.mp3,NULL,NULL,NULL,NULL,NULL
343,fz8lzr7s4gpvw1n,1,659,NULL,button-response,98,901810,0.0-7.0-2.28,Array,0,0,test,NULL,NULL
344,fz8lzr7s4gpvw1n,1,-1000,-1,single-audio,99,903811,0.0-7.0-0.29,sound/Language1/ADB.mp3,NULL,NULL,NULL,NULL,NULL
345,fz8lzr7s4gpvw1n,1,-1000,-1,single-audio,100,905813,0.0-7.0-1.29,sound/Language2/CsharpBA.mp3,NULL,NULL,NULL,NULL,NULL
346,fz8lzr7s4gpvw1n,1,458,NULL,button-response,101,906272,0.0-7.0-2.29,Array,1,1,test,NULL,NULL
347,fz8lzr7s4gpvw1n,1,-1000,-1,single-audio,102,908274,0.0-7.0-0.30,sound/Language1/GGsharpA.mp3,NULL,NULL,NULL,NULL,NULL
348,fz8lzr7s4gpvw1n,1,-1000,-1,single-audio,103,910278,0.0-7.0-1.30,sound/Language2/GsharpBA.mp3,NULL,NULL,NULL,NULL,NULL
349,fz8lzr7s4gpvw1n,1,408,NULL,button-response,104,910688,0.0-7.0-2.30,Array,1,1,test,NULL,NULL
350,fz8lzr7s4gpvw1n,1,-1000,-1,single-audio,105,912689,0.0-7.0-0.31,sound/Language2/CsharpBA.mp3,NULL,NULL,NULL,NULL,NULL
351,fz8lzr7s4gpvw1n,1,-1000,-1,single-audio,106,914690,0.0-7.0-1.31,sound/Language1/DFE.mp3,NULL,NULL,NULL,NULL,NULL
352,fz8lzr7s4gpvw1n,1,750,NULL,button-response,107,915441,0.0-7.0-2.31,Array,1,0,test,NULL,NULL
353,fz8lzr7s4gpvw1n,1,-1000,-1,single-audio,108,917447,0.0-7.0-0.32,sound/Language2/GsharpBA.mp3,NULL,NULL,NULL,NULL,NULL
354,fz8lzr7s4gpvw1n,1,-1000,-1,single-audio,109,919449,0.0-7.0-1.32,sound/Language1/FCFsharp.mp3,NULL,NULL,NULL,NULL,NULL
355,fz8lzr7s4gpvw1n,1,356,NULL,button-response,110,919806,0.0-7.0-2.32,Array,0,1,test,NULL,NULL
356,fz8lzr7s4gpvw1n,1,-1000,-1,single-audio,111,921808,0.0-7.0-0.33,sound/Language1/FCFsharp.mp3,NULL,NULL,NULL,NULL,NULL
357,fz8lzr7s4gpvw1n,1,-1000,-1,single-audio,112,923809,0.0-7.0-1.33,sound/Language2/FsharpGsharpE.mp3,NULL,NULL,NULL,NULL,NULL
358,fz8lzr7s4gpvw1n,1,337,NULL,button-response,113,924148,0.0-7.0-2.33,Array,0,0,test,NULL,NULL
359,fz8lzr7s4gpvw1n,1,-1000,-1,single-audio,114,926153,0.0-7.0-0.34,sound/Language2/FsharpGsharpE.mp3,NULL,NULL,NULL,NULL,NULL
360,fz8lzr7s4gpvw1n,1,-1000,-1,single-audio,115,928158,0.0-7.0-1.34,sound/Language1/CCsharpD.mp3,NULL,NULL,NULL,NULL,NULL
361,fz8lzr7s4gpvw1n,1,360,NULL,button-response,116,928520,0.0-7.0-2.34,Array,1,0,test,NULL,NULL
362,fz8lzr7s4gpvw1n,1,-1000,-1,single-audio,117,930525,0.0-7.0-0.35,sound/Language1/ADB.mp3,NULL,NULL,NULL,NULL,NULL
363,fz8lzr7s4gpvw1n,1,-1000,-1,single-audio,118,932526,0.0-7.0-1.35,sound/Language2/ACsharpE.mp3,NULL,NULL,NULL,NULL,NULL
364,fz8lzr7s4gpvw1n,1,432,NULL,button-response,119,932960,0.0-7.0-2.35,Array,1,1,test,NULL,NULL
365,fz8lzr7s4gpvw1n,1,2054,32,text,120,935014,0.0-8.0,NULL,NULL,NULL,NULL,NULL,NULL
366,fz8lzr7s4gpvw1n,1,18359,NULL,survey-text,121,953379,0.0-9.0,NULL,NULL,NULL,demographics,"{""Q0"":""1986"",""Q1"":""male"",""Q2"":""1"",""Q3"":""no"",""Q4"":""yes, 7 years""}",NULL
367,2ubx8kpeg3nwc1w,1,45888,32,text,0,45891,0.0-0.0,NULL,NULL,NULL,NULL,NULL,NULL
368,2ubx8kpeg3nwc1w,1,8076,NULL,button-response,1,53974,0.0-1.0,"<p>This experiment is being conducted at Vass",0,NULL,NULL,NULL,NULL
369,2ubx8kpeg3nwc1w,1,3003,32,text,2,56978,0.0-2.0,NULL,NULL,NULL,NULL,NULL,NULL
370,2ubx8kpeg3nwc1w,1,5203,75,single-audio,3,62283,0.0-3.0,sound/checkvolume.mp3,NULL,NULL,NULL,NULL,NULL
371,2ubx8kpeg3nwc1w,1,12711,32,text,4,74994,0.0-4.0,NULL,NULL,NULL,NULL,NULL,NULL
372,2ubx8kpeg3nwc1w,1,-1000,-1,single-audio,5,290014,0.0-5.0-0.0,sound/Language2/Language2.mp3,NULL,NULL,NULL,NULL,NULL
373,2ubx8kpeg3nwc1w,1,-1000,-1,single-audio,6,310016,0.0-5.0-1.0,sound/silence.mp3,NULL,NULL,NULL,NULL,NULL
374,2ubx8kpeg3nwc1w,1,-1000,-1,single-audio,7,524035,0.0-5.0-0.1,sound/Language2/Language2.mp3,NULL,NULL,NULL,NULL,NULL
375,2ubx8kpeg3nwc1w,1,-1000,-1,single-audio,8,544036,0.0-5.0-1.1,sound/silence.mp3,NULL,NULL,NULL,NULL,NULL
376,2ubx8kpeg3nwc1w,1,-1000,-1,single-audio,9,758059,0.0-5.0-0.2,sound/Language2/Language2.mp3,NULL,NULL,NULL,NULL,NULL
377,2ubx8kpeg3nwc1w,1,-1000,-1,single-audio,10,778065,0.0-5.0-1.2,sound/silence.mp3,NULL,NULL,NULL,NULL,NULL
378,2ubx8kpeg3nwc1w,1,7928,32,text,11,785995,0.0-6.0,NULL,NULL,NULL,NULL,NULL,NULL
379,2ubx8kpeg3nwc1w,1,-1000,-1,single-audio,12,788998,0.0-7.0-0.0,sound/Language1/FCFsharp.mp3,NULL,NULL,NULL,NULL,NULL
380,2ubx8kpeg3nwc1w,1,-1000,-1,single-audio,13,791000,0.0-7.0-1.0,sound/Language2/CsharpBA.mp3,NULL,NULL,NULL,NULL,NULL
381,2ubx8kpeg3nwc1w,1,2402,NULL,button-response,14,793405,0.0-7.0-2.0,Array,1,1,test,NULL,NULL
382,2ubx8kpeg3nwc1w,1,-1000,-1,single-audio,15,795407,0.0-7.0-0.1,sound/Language1/DsharpED.mp3,NULL,NULL,NULL,NULL,NULL
383,2ubx8kpeg3nwc1w,1,-1000,-1,single-audio,16,797407,0.0-7.0-1.1,sound/Language2/CsharpFD.mp3,NULL,NULL,NULL,NULL,NULL
384,2ubx8kpeg3nwc1w,1,659,NULL,button-response,17,798069,0.0-7.0-2.1,Array,1,1,test,NULL,NULL
385,2ubx8kpeg3nwc1w,1,-1000,-1,single-audio,18,800069,0.0-7.0-0.2,sound/Language1/DsharpED.mp3,NULL,NULL,NULL,NULL,NULL
386,2ubx8kpeg3nwc1w,1,-1000,-1,single-audio,19,802070,0.0-7.0-1.2,sound/Language2/ACsharpE.mp3,NULL,NULL,NULL,NULL,NULL
387,2ubx8kpeg3nwc1w,1,1357,NULL,button-response,20,803428,0.0-7.0-2.2,Array,0,0,test,NULL,NULL
388,2ubx8kpeg3nwc1w,1,-1000,-1,single-audio,21,805429,0.0-7.0-0.3,sound/Language2/GsharpBA.mp3,NULL,NULL,NULL,NULL,NULL
389,2ubx8kpeg3nwc1w,1,-1000,-1,single-audio,22,807430,0.0-7.0-1.3,sound/Language1/DFE.mp3,NULL,NULL,NULL,NULL,NULL
390,2ubx8kpeg3nwc1w,1,661,NULL,button-response,23,808091,0.0-7.0-2.3,Array,0,1,test,NULL,NULL
391,2ubx8kpeg3nwc1w,1,-1000,-1,single-audio,24,810092,0.0-7.0-0.4,sound/Language1/DFE.mp3,NULL,NULL,NULL,NULL,NULL
392,2ubx8kpeg3nwc1w,1,-1000,-1,single-audio,25,812092,0.0-7.0-1.4,sound/Language2/ACsharpE.mp3,NULL,NULL,NULL,NULL,NULL
393,2ubx8kpeg3nwc1w,1,3460,NULL,button-response,26,815554,0.0-7.0-2.4,Array,0,0,test,NULL,NULL
394,2ubx8kpeg3nwc1w,1,-1000,-1,single-audio,27,817556,0.0-7.0-0.5,sound/Language1/FCFsharp.mp3,NULL,NULL,NULL,NULL,NULL
395,2ubx8kpeg3nwc1w,1,-1000,-1,single-audio,28,819558,0.0-7.0-1.5,sound/Language2/GsharpBA.mp3,NULL,NULL,NULL,NULL,NULL
396,2ubx8kpeg3nwc1w,1,627,NULL,button-response,29,820185,0.0-7.0-2.5,Array,1,1,test,NULL,NULL
397,2ubx8kpeg3nwc1w,1,-1000,-1,single-audio,30,822187,0.0-7.0-0.6,sound/Language1/GGsharpA.mp3,NULL,NULL,NULL,NULL,NULL
398,2ubx8kpeg3nwc1w,1,-1000,-1,single-audio,31,824189,0.0-7.0-1.6,sound/Language2/GCDsharp.mp3,NULL,NULL,NULL,NULL,NULL
399,2ubx8kpeg3nwc1w,1,490,NULL,button-response,32,824681,0.0-7.0-2.6,Array,1,1,test,NULL,NULL
400,2ubx8kpeg3nwc1w,1,-1000,-1,single-audio,33,826681,0.0-7.0-0.7,sound/Language2/CsharpBA.mp3,NULL,NULL,NULL,NULL,NULL
401,2ubx8kpeg3nwc1w,1,-1000,-1,single-audio,34,828682,0.0-7.0-1.7,sound/Language1/CCsharpD.mp3,NULL,NULL,NULL,NULL,NULL
402,2ubx8kpeg3nwc1w,1,509,NULL,button-response,35,829192,0.0-7.0-2.7,Array,0,1,test,NULL,NULL
403,2ubx8kpeg3nwc1w,1,-1000,-1,single-audio,36,831192,0.0-7.0-0.8,sound/Language2/CsharpBA.mp3,NULL,NULL,NULL,NULL,NULL
404,2ubx8kpeg3nwc1w,1,-1000,-1,single-audio,37,833194,0.0-7.0-1.8,sound/Language1/GGsharpA.mp3,NULL,NULL,NULL,NULL,NULL
405,2ubx8kpeg3nwc1w,1,445,NULL,button-response,38,833639,0.0-7.0-2.8,Array,0,1,test,NULL,NULL
406,2ubx8kpeg3nwc1w,1,-1000,-1,single-audio,39,835641,0.0-7.0-0.9,sound/Language2/CsharpFD.mp3,NULL,NULL,NULL,NULL,NULL
407,2ubx8kpeg3nwc1w,1,-1000,-1,single-audio,40,837642,0.0-7.0-1.9,sound/Language1/DFE.mp3,NULL,NULL,NULL,NULL,NULL
408,2ubx8kpeg3nwc1w,1,771,NULL,button-response,41,838415,0.0-7.0-2.9,Array,0,1,test,NULL,NULL
409,2ubx8kpeg3nwc1w,1,-1000,-1,single-audio,42,840416,0.0-7.0-0.10,sound/Language1/FCFsharp.mp3,NULL,NULL,NULL,NULL,NULL
410,2ubx8kpeg3nwc1w,1,-1000,-1,single-audio,43,842417,0.0-7.0-1.10,sound/Language2/GCDsharp.mp3,NULL,NULL,NULL,NULL,NULL
411,2ubx8kpeg3nwc1w,1,619,NULL,button-response,44,843037,0.0-7.0-2.10,Array,1,1,test,NULL,NULL
412,2ubx8kpeg3nwc1w,1,-1000,-1,single-audio,45,845037,0.0-7.0-0.11,sound/Language2/ACsharpE.mp3,NULL,NULL,NULL,NULL,NULL
413,2ubx8kpeg3nwc1w,1,-1000,-1,single-audio,46,847038,0.0-7.0-1.11,sound/Language1/FCFsharp.mp3,NULL,NULL,NULL,NULL,NULL
414,2ubx8kpeg3nwc1w,1,1020,NULL,button-response,47,848061,0.0-7.0-2.11,Array,0,1,test,NULL,NULL
415,2ubx8kpeg3nwc1w,1,-1000,-1,single-audio,48,850127,0.0-7.0-0.12,sound/Language1/CCsharpD.mp3,NULL,NULL,NULL,NULL,NULL
416,2ubx8kpeg3nwc1w,1,-1000,-1,single-audio,49,852127,0.0-7.0-1.12,sound/Language2/GCDsharp.mp3,NULL,NULL,NULL,NULL,NULL
417,2ubx8kpeg3nwc1w,1,1004,NULL,button-response,50,853132,0.0-7.0-2.12,Array,1,1,test,NULL,NULL
418,2ubx8kpeg3nwc1w,1,-1000,-1,single-audio,51,855133,0.0-7.0-0.13,sound/Language2/GsharpBA.mp3,NULL,NULL,NULL,NULL,NULL
419,2ubx8kpeg3nwc1w,1,-1000,-1,single-audio,52,857136,0.0-7.0-1.13,sound/Language1/GGsharpA.mp3,NULL,NULL,NULL,NULL,NULL
420,2ubx8kpeg3nwc1w,1,482,NULL,button-response,53,857620,0.0-7.0-2.13,Array,0,1,test,NULL,NULL
421,2ubx8kpeg3nwc1w,1,-1000,-1,single-audio,54,859620,0.0-7.0-0.14,sound/Language2/FsharpGsharpE.mp3,NULL,NULL,NULL,NULL,NULL
422,2ubx8kpeg3nwc1w,1,-1000,-1,single-audio,55,861622,0.0-7.0-1.14,sound/Language1/DFE.mp3,NULL,NULL,NULL,NULL,NULL
423,2ubx8kpeg3nwc1w,1,642,NULL,button-response,56,862267,0.0-7.0-2.14,Array,1,0,test,NULL,NULL
424,2ubx8kpeg3nwc1w,1,-1000,-1,single-audio,57,864267,0.0-7.0-0.15,sound/Language2/FsharpGsharpE.mp3,NULL,NULL,NULL,NULL,NULL
425,2ubx8kpeg3nwc1w,1,-1000,-1,single-audio,58,866268,0.0-7.0-1.15,sound/Language1/GGsharpA.mp3,NULL,NULL,NULL,NULL,NULL
426,2ubx8kpeg3nwc1w,1,1828,NULL,button-response,59,868098,0.0-7.0-2.15,Array,1,0,test,NULL,NULL
427,2ubx8kpeg3nwc1w,1,-1000,-1,single-audio,60,870098,0.0-7.0-0.16,sound/Language1/DFE.mp3,NULL,NULL,NULL,NULL,NULL
428,2ubx8kpeg3nwc1w,1,-1000,-1,single-audio,61,872098,0.0-7.0-1.16,sound/Language2/CsharpBA.mp3,NULL,NULL,NULL,NULL,NULL
429,2ubx8kpeg3nwc1w,1,444,NULL,button-response,62,872546,0.0-7.0-2.16,Array,1,1,test,NULL,NULL
430,2ubx8kpeg3nwc1w,1,-1000,-1,single-audio,63,874546,0.0-7.0-0.17,sound/Language2/GsharpBA.mp3,NULL,NULL,NULL,NULL,NULL
431,2ubx8kpeg3nwc1w,1,-1000,-1,single-audio,64,876547,0.0-7.0-1.17,sound/Language1/CCsharpD.mp3,NULL,NULL,NULL,NULL,NULL
432,2ubx8kpeg3nwc1w,1,476,NULL,button-response,65,877025,0.0-7.0-2.17,Array,0,1,test,NULL,NULL
433,2ubx8kpeg3nwc1w,1,-1000,-1,single-audio,66,879026,0.0-7.0-0.18,sound/Language1/DsharpED.mp3,NULL,NULL,NULL,NULL,NULL
434,2ubx8kpeg3nwc1w,1,-1000,-1,single-audio,67,881027,0.0-7.0-1.18,sound/Language2/GsharpBA.mp3,NULL,NULL,NULL,NULL,NULL
435,2ubx8kpeg3nwc1w,1,508,NULL,button-response,68,881536,0.0-7.0-2.18,Array,1,1,test,NULL,NULL
436,2ubx8kpeg3nwc1w,1,-1000,-1,single-audio,69,883536,0.0-7.0-0.19,sound/Language2/FsharpGsharpE.mp3,NULL,NULL,NULL,NULL,NULL
437,2ubx8kpeg3nwc1w,1,-1000,-1,single-audio,70,885538,0.0-7.0-1.19,sound/Language1/FCFsharp.mp3,NULL,NULL,NULL,NULL,NULL
438,2ubx8kpeg3nwc1w,1,524,NULL,button-response,71,886063,0.0-7.0-2.19,Array,0,1,test,NULL,NULL
439,2ubx8kpeg3nwc1w,1,-1000,-1,single-audio,72,888064,0.0-7.0-0.20,sound/Language2/GCDsharp.mp3,NULL,NULL,NULL,NULL,NULL
440,2ubx8kpeg3nwc1w,1,-1000,-1,single-audio,73,890065,0.0-7.0-1.20,sound/Language2/ACsharpE.mp3,NULL,NULL,NULL,NULL,NULL
441,2ubx8kpeg3nwc1w,1,1476,NULL,button-response,74,891542,0.0-7.0-2.20,Array,1,0,test,NULL,NULL
442,2ubx8kpeg3nwc1w,1,-1000,-1,single-audio,75,893543,0.0-7.0-0.21,sound/Language1/GGsharpA.mp3,NULL,NULL,NULL,NULL,NULL
443,2ubx8kpeg3nwc1w,1,-1000,-1,single-audio,76,895543,0.0-7.0-1.21,sound/Language2/CsharpFD.mp3,NULL,NULL,NULL,NULL,NULL
444,2ubx8kpeg3nwc1w,1,429,NULL,button-response,77,895974,0.0-7.0-2.21,Array,1,1,test,NULL,NULL
445,2ubx8kpeg3nwc1w,1,-1000,-1,single-audio,78,897976,0.0-7.0-0.22,sound/Language1/DFE.mp3,NULL,NULL,NULL,NULL,NULL
446,2ubx8kpeg3nwc1w,1,-1000,-1,single-audio,79,899976,0.0-7.0-1.22,sound/Language2/GCDsharp.mp3,NULL,NULL,NULL,NULL,NULL
447,2ubx8kpeg3nwc1w,1,1523,NULL,button-response,80,901501,0.0-7.0-2.22,Array,1,1,test,NULL,NULL
448,2ubx8kpeg3nwc1w,1,-1000,-1,single-audio,81,903516,0.0-7.0-0.23,sound/Language1/ADB.mp3,NULL,NULL,NULL,NULL,NULL
449,2ubx8kpeg3nwc1w,1,-1000,-1,single-audio,82,905517,0.0-7.0-1.23,sound/Language2/ACsharpE.mp3,NULL,NULL,NULL,NULL,NULL
450,2ubx8kpeg3nwc1w,1,407,NULL,button-response,83,905924,0.0-7.0-2.23,Array,1,1,test,NULL,NULL
451,2ubx8kpeg3nwc1w,1,-1000,-1,single-audio,84,907924,0.0-7.0-0.24,sound/Language1/ADB.mp3,NULL,NULL,NULL,NULL,NULL
452,2ubx8kpeg3nwc1w,1,-1000,-1,single-audio,85,909926,0.0-7.0-1.24,sound/Language2/CsharpBA.mp3,NULL,NULL,NULL,NULL,NULL
453,2ubx8kpeg3nwc1w,1,284,NULL,button-response,86,910212,0.0-7.0-2.24,Array,1,1,test,NULL,NULL
454,2ubx8kpeg3nwc1w,1,-1000,-1,single-audio,87,912213,0.0-7.0-0.25,sound/Language1/GGsharpA.mp3,NULL,NULL,NULL,NULL,NULL
455,2ubx8kpeg3nwc1w,1,-1000,-1,single-audio,88,914214,0.0-7.0-1.25,sound/Language2/ACsharpE.mp3,NULL,NULL,NULL,NULL,NULL
456,2ubx8kpeg3nwc1w,1,346,NULL,button-response,89,914563,0.0-7.0-2.25,Array,1,1,test,NULL,NULL
457,2ubx8kpeg3nwc1w,1,-1000,-1,single-audio,90,916563,0.0-7.0-0.26,sound/Language1/CCsharpD.mp3,NULL,NULL,NULL,NULL,NULL
458,2ubx8kpeg3nwc1w,1,-1000,-1,single-audio,91,918565,0.0-7.0-1.26,sound/Language2/CsharpFD.mp3,NULL,NULL,NULL,NULL,NULL
459,2ubx8kpeg3nwc1w,1,308,NULL,button-response,92,918874,0.0-7.0-2.26,Array,1,1,test,NULL,NULL
460,2ubx8kpeg3nwc1w,1,-1000,-1,single-audio,93,920875,0.0-7.0-0.27,sound/Language1/CCsharpD.mp3,NULL,NULL,NULL,NULL,NULL
461,2ubx8kpeg3nwc1w,1,-1000,-1,single-audio,94,922876,0.0-7.0-1.27,sound/Language2/ACsharpE.mp3,NULL,NULL,NULL,NULL,NULL
462,2ubx8kpeg3nwc1w,1,429,NULL,button-response,95,923306,0.0-7.0-2.27,Array,1,1,test,NULL,NULL
463,2ubx8kpeg3nwc1w,1,-1000,-1,single-audio,96,925307,0.0-7.0-0.28,sound/Language2/CsharpFD.mp3,NULL,NULL,NULL,NULL,NULL
464,2ubx8kpeg3nwc1w,1,-1000,-1,single-audio,97,927309,0.0-7.0-1.28,sound/Language1/ADB.mp3,NULL,NULL,NULL,NULL,NULL
465,2ubx8kpeg3nwc1w,1,427,NULL,button-response,98,927737,0.0-7.0-2.28,Array,0,1,test,NULL,NULL
466,2ubx8kpeg3nwc1w,1,-1000,-1,single-audio,99,929739,0.0-7.0-0.29,sound/Language1/DsharpED.mp3,NULL,NULL,NULL,NULL,NULL
467,2ubx8kpeg3nwc1w,1,-1000,-1,single-audio,100,931741,0.0-7.0-1.29,sound/Language2/FsharpGsharpE.mp3,NULL,NULL,NULL,NULL,NULL
468,2ubx8kpeg3nwc1w,1,402,NULL,button-response,101,932145,0.0-7.0-2.29,Array,1,1,test,NULL,NULL
469,2ubx8kpeg3nwc1w,1,-1000,-1,single-audio,102,934145,0.0-7.0-0.30,sound/Language2/FsharpGsharpE.mp3,NULL,NULL,NULL,NULL,NULL
470,2ubx8kpeg3nwc1w,1,-1000,-1,single-audio,103,936145,0.0-7.0-1.30,sound/Language1/ADB.mp3,NULL,NULL,NULL,NULL,NULL
471,2ubx8kpeg3nwc1w,1,452,NULL,button-response,104,936599,0.0-7.0-2.30,Array,0,1,test,NULL,NULL
472,2ubx8kpeg3nwc1w,1,-1000,-1,single-audio,105,938601,0.0-7.0-0.31,sound/Language1/DsharpED.mp3,NULL,NULL,NULL,NULL,NULL
473,2ubx8kpeg3nwc1w,1,-1000,-1,single-audio,106,940602,0.0-7.0-1.31,sound/Language2/CsharpBA.mp3,NULL,NULL,NULL,NULL,NULL
474,2ubx8kpeg3nwc1w,1,396,NULL,button-response,107,941000,0.0-7.0-2.31,Array,1,1,test,NULL,NULL
475,2ubx8kpeg3nwc1w,1,-1000,-1,single-audio,108,943000,0.0-7.0-0.32,sound/Language2/CsharpFD.mp3,NULL,NULL,NULL,NULL,NULL
476,2ubx8kpeg3nwc1w,1,-1000,-1,single-audio,109,945001,0.0-7.0-1.32,sound/Language1/FCFsharp.mp3,NULL,NULL,NULL,NULL,NULL
477,2ubx8kpeg3nwc1w,1,412,NULL,button-response,110,945414,0.0-7.0-2.32,Array,0,1,test,NULL,NULL
478,2ubx8kpeg3nwc1w,1,-1000,-1,single-audio,111,947414,0.0-7.0-0.33,sound/Language2/FsharpGsharpE.mp3,NULL,NULL,NULL,NULL,NULL
479,2ubx8kpeg3nwc1w,1,-1000,-1,single-audio,112,949416,0.0-7.0-1.33,sound/Language1/CCsharpD.mp3,NULL,NULL,NULL,NULL,NULL
480,2ubx8kpeg3nwc1w,1,420,NULL,button-response,113,949837,0.0-7.0-2.33,Array,0,1,test,NULL,NULL
481,2ubx8kpeg3nwc1w,1,-1000,-1,single-audio,114,951838,0.0-7.0-0.34,sound/Language2/GsharpBA.mp3,NULL,NULL,NULL,NULL,NULL
482,2ubx8kpeg3nwc1w,1,-1000,-1,single-audio,115,953839,0.0-7.0-1.34,sound/Language1/ADB.mp3,NULL,NULL,NULL,NULL,NULL
483,2ubx8kpeg3nwc1w,1,484,NULL,button-response,116,954324,0.0-7.0-2.34,Array,0,1,test,NULL,NULL
484,2ubx8kpeg3nwc1w,1,-1000,-1,single-audio,117,956325,0.0-7.0-0.35,sound/Language2/GCDsharp.mp3,NULL,NULL,NULL,NULL,NULL
485,2ubx8kpeg3nwc1w,1,-1000,-1,single-audio,118,958327,0.0-7.0-1.35,sound/Language1/DsharpED.mp3,NULL,NULL,NULL,NULL,NULL
486,2ubx8kpeg3nwc1w,1,524,NULL,button-response,119,958852,0.0-7.0-2.35,Array,0,1,test,NULL,NULL
487,2ubx8kpeg3nwc1w,1,2283,32,text,120,961137,0.0-8.0,NULL,NULL,NULL,NULL,NULL,NULL
488,2ubx8kpeg3nwc1w,1,162308,NULL,survey-text,121,1123450,0.0-9.0,NULL,NULL,NULL,demographics,"{""Q0"":""1976"",""Q1"":""male"",""Q2"":""40"",""Q3"":""No"",""Q4"":""I was in middle school band two years and had one year of piano lessons even before that -- all more than 25 years ago.""}",NULL
489,y4s3q0nhadhjagd,0,3213,32,text,0,3217,0.0-0.0,NULL,NULL,NULL,NULL,NULL,NULL
490,y4s3q0nhadhjagd,0,23811,NULL,button-response,1,27030,0.0-1.0,"<p>This experiment is being conducted at Vass",0,NULL,NULL,NULL,NULL
491,y4s3q0nhadhjagd,0,5418,32,text,2,32448,0.0-2.0,NULL,NULL,NULL,NULL,NULL,NULL
492,y4s3q0nhadhjagd,0,17890,75,single-audio,3,50441,0.0-3.0,sound/checkvolume.mp3,NULL,NULL,NULL,NULL,NULL
493,y4s3q0nhadhjagd,0,27639,32,text,4,78080,0.0-4.0,NULL,NULL,NULL,NULL,NULL,NULL
494,y4s3q0nhadhjagd,0,-1000,-1,single-audio,5,293109,0.0-5.0-0.0,sound/Language1/Language1.mp3,NULL,NULL,NULL,NULL,NULL
495,y4s3q0nhadhjagd,0,-1000,-1,single-audio,6,313111,0.0-5.0-1.0,sound/silence.mp3,NULL,NULL,NULL,NULL,NULL
496,y4s3q0nhadhjagd,0,-1000,-1,single-audio,7,527129,0.0-5.0-0.1,sound/Language1/Language1.mp3,NULL,NULL,NULL,NULL,NULL
497,y4s3q0nhadhjagd,0,-1000,-1,single-audio,8,547130,0.0-5.0-1.1,sound/silence.mp3,NULL,NULL,NULL,NULL,NULL
498,y4s3q0nhadhjagd,0,-1000,-1,single-audio,9,761149,0.0-5.0-0.2,sound/Language1/Language1.mp3,NULL,NULL,NULL,NULL,NULL
499,y4s3q0nhadhjagd,0,-1000,-1,single-audio,10,781150,0.0-5.0-1.2,sound/silence.mp3,NULL,NULL,NULL,NULL,NULL
500,y4s3q0nhadhjagd,0,100003,32,text,11,881153,0.0-6.0,NULL,NULL,NULL,NULL,NULL,NULL
501,y4s3q0nhadhjagd,0,-1000,-1,single-audio,12,884155,0.0-7.0-0.0,sound/Language1/GGsharpA.mp3,NULL,NULL,NULL,NULL,NULL
502,y4s3q0nhadhjagd,0,-1000,-1,single-audio,13,886155,0.0-7.0-1.0,sound/Language2/CsharpBA.mp3,NULL,NULL,NULL,NULL,NULL
503,y4s3q0nhadhjagd,0,1248,NULL,button-response,14,887403,0.0-7.0-2.0,Array,0,1,test,NULL,NULL
504,y4s3q0nhadhjagd,0,-1000,-1,single-audio,15,889405,0.0-7.0-0.1,sound/Language1/DsharpED.mp3,NULL,NULL,NULL,NULL,NULL
505,y4s3q0nhadhjagd,0,-1000,-1,single-audio,16,891405,0.0-7.0-1.1,sound/Language2/FsharpGsharpE.mp3,NULL,NULL,NULL,NULL,NULL
506,y4s3q0nhadhjagd,0,1017,NULL,button-response,17,892423,0.0-7.0-2.1,Array,0,1,test,NULL,NULL
507,y4s3q0nhadhjagd,0,-1000,-1,single-audio,18,894424,0.0-7.0-0.2,sound/Language2/CsharpBA.mp3,NULL,NULL,NULL,NULL,NULL
508,y4s3q0nhadhjagd,0,-1000,-1,single-audio,19,896425,0.0-7.0-1.2,sound/Language1/FCFsharp.mp3,NULL,NULL,NULL,NULL,NULL
509,y4s3q0nhadhjagd,0,591,NULL,button-response,20,897016,0.0-7.0-2.2,Array,1,1,test,NULL,NULL
510,y4s3q0nhadhjagd,0,-1000,-1,single-audio,21,899017,0.0-7.0-0.3,sound/Language1/FCFsharp.mp3,NULL,NULL,NULL,NULL,NULL
511,y4s3q0nhadhjagd,0,-1000,-1,single-audio,22,901018,0.0-7.0-1.3,sound/Language2/GCDsharp.mp3,NULL,NULL,NULL,NULL,NULL
512,y4s3q0nhadhjagd,0,675,NULL,button-response,23,901693,0.0-7.0-2.3,Array,1,0,test,NULL,NULL
513,y4s3q0nhadhjagd,0,-1000,-1,single-audio,24,903695,0.0-7.0-0.4,sound/Language2/GCDsharp.mp3,NULL,NULL,NULL,NULL,NULL
514,y4s3q0nhadhjagd,0,-1000,-1,single-audio,25,905696,0.0-7.0-1.4,sound/Language1/GGsharpA.mp3,NULL,NULL,NULL,NULL,NULL
515,y4s3q0nhadhjagd,0,769,NULL,button-response,26,906465,0.0-7.0-2.4,Array,0,0,test,NULL,NULL
516,y4s3q0nhadhjagd,0,-1000,-1,single-audio,27,908467,0.0-7.0-0.5,sound/Language2/GsharpBA.mp3,NULL,NULL,NULL,NULL,NULL
517,y4s3q0nhadhjagd,0,-1000,-1,single-audio,28,910468,0.0-7.0-1.5,sound/Language1/FCFsharp.mp3,NULL,NULL,NULL,NULL,NULL
518,y4s3q0nhadhjagd,0,453,NULL,button-response,29,910921,0.0-7.0-2.5,Array,0,0,test,NULL,NULL
519,y4s3q0nhadhjagd,0,-1000,-1,single-audio,30,912922,0.0-7.0-0.6,sound/Language1/GGsharpA.mp3,NULL,NULL,NULL,NULL,NULL
520,y4s3q0nhadhjagd,0,-1000,-1,single-audio,31,914923,0.0-7.0-1.6,sound/Language2/GsharpBA.mp3,NULL,NULL,NULL,NULL,NULL
521,y4s3q0nhadhjagd,0,514,NULL,button-response,32,915437,0.0-7.0-2.6,Array,0,1,test,NULL,NULL
522,y4s3q0nhadhjagd,0,-1000,-1,single-audio,33,917439,0.0-7.0-0.7,sound/Language2/ACsharpE.mp3,NULL,NULL,NULL,NULL,NULL
523,y4s3q0nhadhjagd,0,-1000,-1,single-audio,34,919440,0.0-7.0-1.7,sound/Language1/CCsharpD.mp3,NULL,NULL,NULL,NULL,NULL
524,y4s3q0nhadhjagd,0,537,NULL,button-response,35,919977,0.0-7.0-2.7,Array,1,1,test,NULL,NULL
525,y4s3q0nhadhjagd,0,-1000,-1,single-audio,36,921978,0.0-7.0-0.8,sound/Language1/CCsharpD.mp3,NULL,NULL,NULL,NULL,NULL
526,y4s3q0nhadhjagd,0,-1000,-1,single-audio,37,923980,0.0-7.0-1.8,sound/Language2/GCDsharp.mp3,NULL,NULL,NULL,NULL,NULL
527,y4s3q0nhadhjagd,0,473,NULL,button-response,38,924453,0.0-7.0-2.8,Array,1,0,test,NULL,NULL
528,y4s3q0nhadhjagd,0,-1000,-1,single-audio,39,926454,0.0-7.0-0.9,sound/Language1/CCsharpD.mp3,NULL,NULL,NULL,NULL,NULL
529,y4s3q0nhadhjagd,0,-1000,-1,single-audio,40,928455,0.0-7.0-1.9,sound/Language2/GsharpBA.mp3,NULL,NULL,NULL,NULL,NULL
530,y4s3q0nhadhjagd,0,500,NULL,button-response,41,928955,0.0-7.0-2.9,Array,0,1,test,NULL,NULL
531,y4s3q0nhadhjagd,0,-1000,-1,single-audio,42,930958,0.0-7.0-0.10,sound/Language1/GGsharpA.mp3,NULL,NULL,NULL,NULL,NULL
532,y4s3q0nhadhjagd,0,-1000,-1,single-audio,43,932959,0.0-7.0-1.10,sound/Language2/CsharpFD.mp3,NULL,NULL,NULL,NULL,NULL
533,y4s3q0nhadhjagd,0,1002,NULL,button-response,44,933962,0.0-7.0-2.10,Array,0,1,test,NULL,NULL
534,y4s3q0nhadhjagd,0,-1000,-1,single-audio,45,935963,0.0-7.0-0.11,sound/Language1/GGsharpA.mp3,NULL,NULL,NULL,NULL,NULL
535,y4s3q0nhadhjagd,0,-1000,-1,single-audio,46,937964,0.0-7.0-1.11,sound/Language2/FsharpGsharpE.mp3,NULL,NULL,NULL,NULL,NULL
536,y4s3q0nhadhjagd,0,462,NULL,button-response,47,938427,0.0-7.0-2.11,Array,0,1,test,NULL,NULL
537,y4s3q0nhadhjagd,0,-1000,-1,single-audio,48,940428,0.0-7.0-0.12,sound/Language2/CsharpBA.mp3,NULL,NULL,NULL,NULL,NULL
538,y4s3q0nhadhjagd,0,-1000,-1,single-audio,49,942430,0.0-7.0-1.12,sound/Language1/ADB.mp3,NULL,NULL,NULL,NULL,NULL
539,y4s3q0nhadhjagd,0,553,NULL,button-response,50,942983,0.0-7.0-2.12,Array,1,1,test,NULL,NULL
540,y4s3q0nhadhjagd,0,-1000,-1,single-audio,51,944984,0.0-7.0-0.13,sound/Language1/ADB.mp3,NULL,NULL,NULL,NULL,NULL
541,y4s3q0nhadhjagd,0,-1000,-1,single-audio,52,946985,0.0-7.0-1.13,sound/Language2/GsharpBA.mp3,NULL,NULL,NULL,NULL,NULL
542,y4s3q0nhadhjagd,0,454,NULL,button-response,53,947439,0.0-7.0-2.13,Array,0,1,test,NULL,NULL
543,y4s3q0nhadhjagd,0,-1000,-1,single-audio,54,949441,0.0-7.0-0.14,sound/Language1/FCFsharp.mp3,NULL,NULL,NULL,NULL,NULL
544,y4s3q0nhadhjagd,0,-1000,-1,single-audio,55,951443,0.0-7.0-1.14,sound/Language2/FsharpGsharpE.mp3,NULL,NULL,NULL,NULL,NULL
545,y4s3q0nhadhjagd,0,795,NULL,button-response,56,952238,0.0-7.0-2.14,Array,1,0,test,NULL,NULL
546,y4s3q0nhadhjagd,0,-1000,-1,single-audio,57,954239,0.0-7.0-0.15,sound/Language1/DsharpED.mp3,NULL,NULL,NULL,NULL,NULL
547,y4s3q0nhadhjagd,0,-1000,-1,single-audio,58,956240,0.0-7.0-1.15,sound/Language2/GCDsharp.mp3,NULL,NULL,NULL,NULL,NULL
548,y4s3q0nhadhjagd,0,1307,NULL,button-response,59,957547,0.0-7.0-2.15,Array,1,0,test,NULL,NULL
549,y4s3q0nhadhjagd,0,-1000,-1,single-audio,60,959548,0.0-7.0-0.16,sound/Language2/FsharpGsharpE.mp3,NULL,NULL,NULL,NULL,NULL
550,y4s3q0nhadhjagd,0,-1000,-1,single-audio,61,961550,0.0-7.0-1.16,sound/Language1/DFE.mp3,NULL,NULL,NULL,NULL,NULL
551,y4s3q0nhadhjagd,0,433,NULL,button-response,62,961983,0.0-7.0-2.16,Array,0,0,test,NULL,NULL
552,y4s3q0nhadhjagd,0,-1000,-1,single-audio,63,963985,0.0-7.0-0.17,sound/Language2/ACsharpE.mp3,NULL,NULL,NULL,NULL,NULL
553,y4s3q0nhadhjagd,0,-1000,-1,single-audio,64,965985,0.0-7.0-1.17,sound/Language1/ADB.mp3,NULL,NULL,NULL,NULL,NULL
554,y4s3q0nhadhjagd,0,462,NULL,button-response,65,966447,0.0-7.0-2.17,Array,0,0,test,NULL,NULL
555,y4s3q0nhadhjagd,0,-1000,-1,single-audio,66,968449,0.0-7.0-0.18,sound/Language1/DFE.mp3,NULL,NULL,NULL,NULL,NULL
556,y4s3q0nhadhjagd,0,-1000,-1,single-audio,67,970449,0.0-7.0-1.18,sound/Language2/GCDsharp.mp3,NULL,NULL,NULL,NULL,NULL
557,y4s3q0nhadhjagd,0,410,NULL,button-response,68,970859,0.0-7.0-2.18,Array,0,1,test,NULL,NULL
558,y4s3q0nhadhjagd,0,-1000,-1,single-audio,69,972860,0.0-7.0-0.19,sound/Language1/FCFsharp.mp3,NULL,NULL,NULL,NULL,NULL
559,y4s3q0nhadhjagd,0,-1000,-1,single-audio,70,974861,0.0-7.0-1.19,sound/Language2/CsharpFD.mp3,NULL,NULL,NULL,NULL,NULL
560,y4s3q0nhadhjagd,0,1031,NULL,button-response,71,975892,0.0-7.0-2.19,Array,0,1,test,NULL,NULL
561,y4s3q0nhadhjagd,0,-1000,-1,single-audio,72,977893,0.0-7.0-0.20,sound/Language2/ACsharpE.mp3,NULL,NULL,NULL,NULL,NULL
562,y4s3q0nhadhjagd,0,-1000,-1,single-audio,73,979894,0.0-7.0-1.20,sound/Language1/DFE.mp3,NULL,NULL,NULL,NULL,NULL
563,y4s3q0nhadhjagd,0,585,NULL,button-response,74,980480,0.0-7.0-2.20,Array,0,0,test,NULL,NULL
564,y4s3q0nhadhjagd,0,-1000,-1,single-audio,75,982481,0.0-7.0-0.21,sound/Language2/FsharpGsharpE.mp3,NULL,NULL,NULL,NULL,NULL
565,y4s3q0nhadhjagd,0,-1000,-1,single-audio,76,984482,0.0-7.0-1.21,sound/Language1/ADB.mp3,NULL,NULL,NULL,NULL,NULL
566,y4s3q0nhadhjagd,0,417,NULL,button-response,77,984900,0.0-7.0-2.21,Array,1,1,test,NULL,NULL
567,y4s3q0nhadhjagd,0,-1000,-1,single-audio,78,986901,0.0-7.0-0.22,sound/Language1/ADB.mp3,NULL,NULL,NULL,NULL,NULL
568,y4s3q0nhadhjagd,0,-1000,-1,single-audio,79,988901,0.0-7.0-1.22,sound/Language1/CCsharpD.mp3,NULL,NULL,NULL,NULL,NULL
569,y4s3q0nhadhjagd,0,448,NULL,button-response,80,989349,0.0-7.0-2.22,Array,1,0,test,NULL,NULL
570,y4s3q0nhadhjagd,0,-1000,-1,single-audio,81,991351,0.0-7.0-0.23,sound/Language1/DsharpED.mp3,NULL,NULL,NULL,NULL,NULL
571,y4s3q0nhadhjagd,0,-1000,-1,single-audio,82,993351,0.0-7.0-1.23,sound/Language2/ACsharpE.mp3,NULL,NULL,NULL,NULL,NULL
572,y4s3q0nhadhjagd,0,954,NULL,button-response,83,994306,0.0-7.0-2.23,Array,1,0,test,NULL,NULL
573,y4s3q0nhadhjagd,0,-1000,-1,single-audio,84,996307,0.0-7.0-0.24,sound/Language1/ADB.mp3,NULL,NULL,NULL,NULL,NULL
574,y4s3q0nhadhjagd,0,-1000,-1,single-audio,85,998308,0.0-7.0-1.24,sound/Language2/CsharpFD.mp3,NULL,NULL,NULL,NULL,NULL
575,y4s3q0nhadhjagd,0,414,NULL,button-response,86,998722,0.0-7.0-2.24,Array,1,0,test,NULL,NULL
576,y4s3q0nhadhjagd,0,-1000,-1,single-audio,87,1000723,0.0-7.0-0.25,sound/Language1/DFE.mp3,NULL,NULL,NULL,NULL,NULL
577,y4s3q0nhadhjagd,0,-1000,-1,single-audio,88,1002723,0.0-7.0-1.25,sound/Language2/GsharpBA.mp3,NULL,NULL,NULL,NULL,NULL
578,y4s3q0nhadhjagd,0,854,NULL,button-response,89,1003577,0.0-7.0-2.25,Array,0,1,test,NULL,NULL
579,y4s3q0nhadhjagd,0,-1000,-1,single-audio,90,1005578,0.0-7.0-0.26,sound/Language2/CsharpFD.mp3,NULL,NULL,NULL,NULL,NULL
580,y4s3q0nhadhjagd,0,-1000,-1,single-audio,91,1007578,0.0-7.0-1.26,sound/Language1/CCsharpD.mp3,NULL,NULL,NULL,NULL,NULL
581,y4s3q0nhadhjagd,0,1527,NULL,button-response,92,1009105,0.0-7.0-2.26,Array,1,1,test,NULL,NULL
582,y4s3q0nhadhjagd,0,-1000,-1,single-audio,93,1011106,0.0-7.0-0.27,sound/Language2/CsharpBA.mp3,NULL,NULL,NULL,NULL,NULL
583,y4s3q0nhadhjagd,0,-1000,-1,single-audio,94,1013107,0.0-7.0-1.27,sound/Language1/DsharpED.mp3,NULL,NULL,NULL,NULL,NULL
584,y4s3q0nhadhjagd,0,597,NULL,button-response,95,1013704,0.0-7.0-2.27,Array,1,1,test,NULL,NULL
585,y4s3q0nhadhjagd,0,-1000,-1,single-audio,96,1015705,0.0-7.0-0.28,sound/Language2/GsharpBA.mp3,NULL,NULL,NULL,NULL,NULL
586,y4s3q0nhadhjagd,0,-1000,-1,single-audio,97,1017707,0.0-7.0-1.28,sound/Language1/DsharpED.mp3,NULL,NULL,NULL,NULL,NULL
587,y4s3q0nhadhjagd,0,572,NULL,button-response,98,1018279,0.0-7.0-2.28,Array,1,1,test,NULL,NULL
588,y4s3q0nhadhjagd,0,-1000,-1,single-audio,99,1020281,0.0-7.0-0.29,sound/Language1/DFE.mp3,NULL,NULL,NULL,NULL,NULL
589,y4s3q0nhadhjagd,0,-1000,-1,single-audio,100,1022282,0.0-7.0-1.29,sound/Language2/CsharpBA.mp3,NULL,NULL,NULL,NULL,NULL
590,y4s3q0nhadhjagd,0,492,NULL,button-response,101,1022774,0.0-7.0-2.29,Array,1,0,test,NULL,NULL
591,y4s3q0nhadhjagd,0,-1000,-1,single-audio,102,1024775,0.0-7.0-0.30,sound/Language2/CsharpBA.mp3,NULL,NULL,NULL,NULL,NULL
592,y4s3q0nhadhjagd,0,-1000,-1,single-audio,103,1026777,0.0-7.0-1.30,sound/Language1/CCsharpD.mp3,NULL,NULL,NULL,NULL,NULL
593,y4s3q0nhadhjagd,0,731,NULL,button-response,104,1027508,0.0-7.0-2.30,Array,0,0,test,NULL,NULL
594,y4s3q0nhadhjagd,0,-1000,-1,single-audio,105,1029509,0.0-7.0-0.31,sound/Language1/GGsharpA.mp3,NULL,NULL,NULL,NULL,NULL
595,y4s3q0nhadhjagd,0,-1000,-1,single-audio,106,1031509,0.0-7.0-1.31,sound/Language2/ACsharpE.mp3,NULL,NULL,NULL,NULL,NULL
596,y4s3q0nhadhjagd,0,440,NULL,button-response,107,1031949,0.0-7.0-2.31,Array,0,1,test,NULL,NULL
597,y4s3q0nhadhjagd,0,-1000,-1,single-audio,108,1033951,0.0-7.0-0.32,sound/Language2/FsharpGsharpE.mp3,NULL,NULL,NULL,NULL,NULL
598,y4s3q0nhadhjagd,0,-1000,-1,single-audio,109,1035951,0.0-7.0-1.32,sound/Language1/CCsharpD.mp3,NULL,NULL,NULL,NULL,NULL
599,y4s3q0nhadhjagd,0,514,NULL,button-response,110,1036465,0.0-7.0-2.32,Array,1,1,test,NULL,NULL
600,y4s3q0nhadhjagd,0,-1000,-1,single-audio,111,1038467,0.0-7.0-0.33,sound/Language1/DFE.mp3,NULL,NULL,NULL,NULL,NULL
601,y4s3q0nhadhjagd,0,-1000,-1,single-audio,112,1040469,0.0-7.0-1.33,sound/Language2/CsharpFD.mp3,NULL,NULL,NULL,NULL,NULL
602,y4s3q0nhadhjagd,0,516,NULL,button-response,113,1040986,0.0-7.0-2.33,Array,0,1,test,NULL,NULL
603,y4s3q0nhadhjagd,0,-1000,-1,single-audio,114,1042986,0.0-7.0-0.34,sound/Language1/DsharpED.mp3,NULL,NULL,NULL,NULL,NULL
604,y4s3q0nhadhjagd,0,-1000,-1,single-audio,115,1044987,0.0-7.0-1.34,sound/Language2/CsharpFD.mp3,NULL,NULL,NULL,NULL,NULL
605,y4s3q0nhadhjagd,0,452,NULL,button-response,116,1045440,0.0-7.0-2.34,Array,0,1,test,NULL,NULL
606,y4s3q0nhadhjagd,0,-1000,-1,single-audio,117,1047440,0.0-7.0-0.35,sound/Language1/FCFsharp.mp3,NULL,NULL,NULL,NULL,NULL
607,y4s3q0nhadhjagd,0,-1000,-1,single-audio,118,1049442,0.0-7.0-1.35,sound/Language2/ACsharpE.mp3,NULL,NULL,NULL,NULL,NULL
608,y4s3q0nhadhjagd,0,815,NULL,button-response,119,1050257,0.0-7.0-2.35,Array,1,0,test,NULL,NULL
609,y4s3q0nhadhjagd,0,5808,32,text,120,1056066,0.0-8.0,NULL,NULL,NULL,NULL,NULL,NULL
610,y4s3q0nhadhjagd,0,26503,NULL,survey-text,121,1082570,0.0-9.0,NULL,NULL,NULL,demographics,"{""Q0"":""1985"",""Q1"":""male"",""Q2"":""30"",""Q3"":""no"",""Q4"":""none""}",NULL
611,gj10hqpatcctwjk,0,1359,32,text,0,1363,0.0-0.0,NULL,NULL,NULL,NULL,NULL,NULL
612,gj10hqpatcctwjk,0,885131,NULL,button-response,1,886501,0.0-1.0,"<p>This experiment is being conducted at Vass",0,NULL,NULL,NULL,NULL
613,gj10hqpatcctwjk,0,22999,32,text,2,909502,0.0-2.0,NULL,NULL,NULL,NULL,NULL,NULL
614,gj10hqpatcctwjk,0,5620,75,single-audio,3,915222,0.0-3.0,sound/checkvolume.mp3,NULL,NULL,NULL,NULL,NULL
615,gj10hqpatcctwjk,0,15256,32,text,4,930479,0.0-4.0,NULL,NULL,NULL,NULL,NULL,NULL
616,gj10hqpatcctwjk,0,-1000,-1,single-audio,5,1145501,0.0-5.0-0.0,sound/Language1/Language1.mp3,NULL,NULL,NULL,NULL,NULL
617,gj10hqpatcctwjk,0,-1000,-1,single-audio,6,1165717,0.0-5.0-1.0,sound/silence.mp3,NULL,NULL,NULL,NULL,NULL
618,gj10hqpatcctwjk,0,-1000,-1,single-audio,7,1379730,0.0-5.0-0.1,sound/Language1/Language1.mp3,NULL,NULL,NULL,NULL,NULL
619,gj10hqpatcctwjk,0,-1000,-1,single-audio,8,1400715,0.0-5.0-1.1,sound/silence.mp3,NULL,NULL,NULL,NULL,NULL
620,gj10hqpatcctwjk,0,-1000,-1,single-audio,9,1614729,0.0-5.0-0.2,sound/Language1/Language1.mp3,NULL,NULL,NULL,NULL,NULL
621,gj10hqpatcctwjk,0,-1000,-1,single-audio,10,1634730,0.0-5.0-1.2,sound/silence.mp3,NULL,NULL,NULL,NULL,NULL
622,gj10hqpatcctwjk,0,22342,32,text,11,1657073,0.0-6.0,NULL,NULL,NULL,NULL,NULL,NULL
623,gj10hqpatcctwjk,0,-1000,-1,single-audio,12,1660076,0.0-7.0-0.0,sound/Language2/GCDsharp.mp3,NULL,NULL,NULL,NULL,NULL
624,gj10hqpatcctwjk,0,-1000,-1,single-audio,13,1662079,0.0-7.0-1.0,sound/Language1/DFE.mp3,NULL,NULL,NULL,NULL,NULL
625,gj10hqpatcctwjk,0,1567,NULL,button-response,14,1663652,0.0-7.0-2.0,Array,1,1,test,NULL,NULL
626,gj10hqpatcctwjk,0,-1000,-1,single-audio,15,1665654,0.0-7.0-0.1,sound/Language2/CsharpFD.mp3,NULL,NULL,NULL,NULL,NULL
627,gj10hqpatcctwjk,0,-1000,-1,single-audio,16,1667656,0.0-7.0-1.1,sound/Language1/FCFsharp.mp3,NULL,NULL,NULL,NULL,NULL
628,gj10hqpatcctwjk,0,622,NULL,button-response,17,1668280,0.0-7.0-2.1,Array,0,0,test,NULL,NULL
629,gj10hqpatcctwjk,0,-1000,-1,single-audio,18,1670281,0.0-7.0-0.2,sound/Language2/FsharpGsharpE.mp3,NULL,NULL,NULL,NULL,NULL
630,gj10hqpatcctwjk,0,-1000,-1,single-audio,19,1672282,0.0-7.0-1.2,sound/Language1/FCFsharp.mp3,NULL,NULL,NULL,NULL,NULL
631,gj10hqpatcctwjk,0,513,NULL,button-response,20,1672797,0.0-7.0-2.2,Array,1,1,test,NULL,NULL
632,gj10hqpatcctwjk,0,-1000,-1,single-audio,21,1674800,0.0-7.0-0.3,sound/Language2/ACsharpE.mp3,NULL,NULL,NULL,NULL,NULL
633,gj10hqpatcctwjk,0,-1000,-1,single-audio,22,1676803,0.0-7.0-1.3,sound/Language1/FCFsharp.mp3,NULL,NULL,NULL,NULL,NULL
634,gj10hqpatcctwjk,0,461,NULL,button-response,23,1677267,0.0-7.0-2.3,Array,1,1,test,NULL,NULL
635,gj10hqpatcctwjk,0,-1000,-1,single-audio,24,1679268,0.0-7.0-0.4,sound/Language1/ADB.mp3,NULL,NULL,NULL,NULL,NULL
636,gj10hqpatcctwjk,0,-1000,-1,single-audio,25,1681269,0.0-7.0-1.4,sound/Language2/FsharpGsharpE.mp3,NULL,NULL,NULL,NULL,NULL
637,gj10hqpatcctwjk,0,626,NULL,button-response,26,1681897,0.0-7.0-2.4,Array,0,1,test,NULL,NULL
638,gj10hqpatcctwjk,0,-1000,-1,single-audio,27,1683900,0.0-7.0-0.5,sound/Language2/FsharpGsharpE.mp3,NULL,NULL,NULL,NULL,NULL
639,gj10hqpatcctwjk,0,-1000,-1,single-audio,28,1685902,0.0-7.0-1.5,sound/Language1/DsharpED.mp3,NULL,NULL,NULL,NULL,NULL
640,gj10hqpatcctwjk,0,977,NULL,button-response,29,1686883,0.0-7.0-2.5,Array,1,1,test,NULL,NULL
641,gj10hqpatcctwjk,0,-1000,-1,single-audio,30,1688884,0.0-7.0-0.6,sound/Language2/GsharpBA.mp3,NULL,NULL,NULL,NULL,NULL
642,gj10hqpatcctwjk,0,-1000,-1,single-audio,31,1690885,0.0-7.0-1.6,sound/Language1/FCFsharp.mp3,NULL,NULL,NULL,NULL,NULL
643,gj10hqpatcctwjk,0,538,NULL,button-response,32,1691425,0.0-7.0-2.6,Array,1,1,test,NULL,NULL
644,gj10hqpatcctwjk,0,-1000,-1,single-audio,33,1693426,0.0-7.0-0.7,sound/Language1/DsharpED.mp3,NULL,NULL,NULL,NULL,NULL
645,gj10hqpatcctwjk,0,-1000,-1,single-audio,34,1695427,0.0-7.0-1.7,sound/Language2/CsharpFD.mp3,NULL,NULL,NULL,NULL,NULL
646,gj10hqpatcctwjk,0,863,NULL,button-response,35,1696293,0.0-7.0-2.7,Array,0,1,test,NULL,NULL
647,gj10hqpatcctwjk,0,-1000,-1,single-audio,36,1698293,0.0-7.0-0.8,sound/Language2/GsharpBA.mp3,NULL,NULL,NULL,NULL,NULL
648,gj10hqpatcctwjk,0,-1000,-1,single-audio,37,1700295,0.0-7.0-1.8,sound/Language1/DsharpED.mp3,NULL,NULL,NULL,NULL,NULL
649,gj10hqpatcctwjk,0,574,NULL,button-response,38,1700871,0.0-7.0-2.8,Array,1,1,test,NULL,NULL
650,gj10hqpatcctwjk,0,-1000,-1,single-audio,39,1702874,0.0-7.0-0.9,sound/Language2/ACsharpE.mp3,NULL,NULL,NULL,NULL,NULL
651,gj10hqpatcctwjk,0,-1000,-1,single-audio,40,1704876,0.0-7.0-1.9,sound/Language1/ADB.mp3,NULL,NULL,NULL,NULL,NULL
652,gj10hqpatcctwjk,0,621,NULL,button-response,41,1705499,0.0-7.0-2.9,Array,0,0,test,NULL,NULL
653,gj10hqpatcctwjk,0,-1000,-1,single-audio,42,1707502,0.0-7.0-0.10,sound/Language1/GGsharpA.mp3,NULL,NULL,NULL,NULL,NULL
654,gj10hqpatcctwjk,0,-1000,-1,single-audio,43,1709502,0.0-7.0-1.10,sound/Language2/ACsharpE.mp3,NULL,NULL,NULL,NULL,NULL
655,gj10hqpatcctwjk,0,687,NULL,button-response,44,1710192,0.0-7.0-2.10,Array,0,1,test,NULL,NULL
656,gj10hqpatcctwjk,0,-1000,-1,single-audio,45,1712194,0.0-7.0-0.11,sound/Language1/CCsharpD.mp3,NULL,NULL,NULL,NULL,NULL
657,gj10hqpatcctwjk,0,-1000,-1,single-audio,46,1714196,0.0-7.0-1.11,sound/Language2/GCDsharp.mp3,NULL,NULL,NULL,NULL,NULL
658,gj10hqpatcctwjk,0,449,NULL,button-response,47,1714649,0.0-7.0-2.11,Array,0,1,test,NULL,NULL
659,gj10hqpatcctwjk,0,-1000,-1,single-audio,48,1716650,0.0-7.0-0.12,sound/Language1/ADB.mp3,NULL,NULL,NULL,NULL,NULL
660,gj10hqpatcctwjk,0,-1000,-1,single-audio,49,1718651,0.0-7.0-1.12,sound/Language2/CsharpFD.mp3,NULL,NULL,NULL,NULL,NULL
661,gj10hqpatcctwjk,0,443,NULL,button-response,50,1719096,0.0-7.0-2.12,Array,1,0,test,NULL,NULL
662,gj10hqpatcctwjk,0,-1000,-1,single-audio,51,1721106,0.0-7.0-0.13,sound/Language2/GCDsharp.mp3,NULL,NULL,NULL,NULL,NULL
663,gj10hqpatcctwjk,0,-1000,-1,single-audio,52,1723113,0.0-7.0-1.13,sound/Language1/FCFsharp.mp3,NULL,NULL,NULL,NULL,NULL
664,gj10hqpatcctwjk,0,2617,NULL,button-response,53,1725732,0.0-7.0-2.13,Array,0,0,test,NULL,NULL
665,gj10hqpatcctwjk,0,-1000,-1,single-audio,54,1727733,0.0-7.0-0.14,sound/Language2/CsharpFD.mp3,NULL,NULL,NULL,NULL,NULL
666,gj10hqpatcctwjk,0,-1000,-1,single-audio,55,1729734,0.0-7.0-1.14,sound/Language1/DFE.mp3,NULL,NULL,NULL,NULL,NULL
667,gj10hqpatcctwjk,0,576,NULL,button-response,56,1730312,0.0-7.0-2.14,Array,1,1,test,NULL,NULL
668,gj10hqpatcctwjk,0,-1000,-1,single-audio,57,1732314,0.0-7.0-0.15,sound/Language1/DFE.mp3,NULL,NULL,NULL,NULL,NULL
669,gj10hqpatcctwjk,0,-1000,-1,single-audio,58,1734316,0.0-7.0-1.15,sound/Language2/FsharpGsharpE.mp3,NULL,NULL,NULL,NULL,NULL
670,gj10hqpatcctwjk,0,512,NULL,button-response,59,1734831,0.0-7.0-2.15,Array,0,1,test,NULL,NULL
671,gj10hqpatcctwjk,0,-1000,-1,single-audio,60,1736833,0.0-7.0-0.16,sound/Language2/GCDsharp.mp3,NULL,NULL,NULL,NULL,NULL
672,gj10hqpatcctwjk,0,-1000,-1,single-audio,61,1738836,0.0-7.0-1.16,sound/Language1/CCsharpD.mp3,NULL,NULL,NULL,NULL,NULL
673,gj10hqpatcctwjk,0,482,NULL,button-response,62,1739323,0.0-7.0-2.16,Array,1,1,test,NULL,NULL
674,gj10hqpatcctwjk,0,-1000,-1,single-audio,63,1741323,0.0-7.0-0.17,sound/Language2/FsharpGsharpE.mp3,NULL,NULL,NULL,NULL,NULL
675,gj10hqpatcctwjk,0,-1000,-1,single-audio,64,1743323,0.0-7.0-1.17,sound/Language1/GGsharpA.mp3,NULL,NULL,NULL,NULL,NULL
676,gj10hqpatcctwjk,0,654,NULL,button-response,65,1743980,0.0-7.0-2.17,Array,0,0,test,NULL,NULL
677,gj10hqpatcctwjk,0,-1000,-1,single-audio,66,1745981,0.0-7.0-0.18,sound/Language1/DFE.mp3,NULL,NULL,NULL,NULL,NULL
678,gj10hqpatcctwjk,0,-1000,-1,single-audio,67,1747983,0.0-7.0-1.18,sound/Language2/CsharpBA.mp3,NULL,NULL,NULL,NULL,NULL
679,gj10hqpatcctwjk,0,437,NULL,button-response,68,1748422,0.0-7.0-2.18,Array,0,1,test,NULL,NULL
680,gj10hqpatcctwjk,0,-1000,-1,single-audio,69,1750424,0.0-7.0-0.19,sound/Language2/CsharpFD.mp3,NULL,NULL,NULL,NULL,NULL
681,gj10hqpatcctwjk,0,-1000,-1,single-audio,70,1752425,0.0-7.0-1.19,sound/Language1/CCsharpD.mp3,NULL,NULL,NULL,NULL,NULL
682,gj10hqpatcctwjk,0,504,NULL,button-response,71,1752931,0.0-7.0-2.19,Array,1,1,test,NULL,NULL
683,gj10hqpatcctwjk,0,-1000,-1,single-audio,72,1754932,0.0-7.0-0.20,sound/Language1/DsharpED.mp3,NULL,NULL,NULL,NULL,NULL
684,gj10hqpatcctwjk,0,-1000,-1,single-audio,73,1756935,0.0-7.0-1.20,sound/Language2/ACsharpE.mp3,NULL,NULL,NULL,NULL,NULL
685,gj10hqpatcctwjk,0,931,NULL,button-response,74,1757868,0.0-7.0-2.20,Array,1,0,test,NULL,NULL
686,gj10hqpatcctwjk,0,-1000,-1,single-audio,75,1759869,0.0-7.0-0.21,sound/Language2/ACsharpE.mp3,NULL,NULL,NULL,NULL,NULL
687,gj10hqpatcctwjk,0,-1000,-1,single-audio,76,1761871,0.0-7.0-1.21,sound/Language1/CCsharpD.mp3,NULL,NULL,NULL,NULL,NULL
688,gj10hqpatcctwjk,0,464,NULL,button-response,77,1762338,0.0-7.0-2.21,Array,1,1,test,NULL,NULL
689,gj10hqpatcctwjk,0,-1000,-1,single-audio,78,1764339,0.0-7.0-0.22,sound/Language1/DsharpED.mp3,NULL,NULL,NULL,NULL,NULL
690,gj10hqpatcctwjk,0,-1000,-1,single-audio,79,1766341,0.0-7.0-1.22,sound/Language2/CsharpBA.mp3,NULL,NULL,NULL,NULL,NULL
691,gj10hqpatcctwjk,0,549,NULL,button-response,80,1766893,0.0-7.0-2.22,Array,0,1,test,NULL,NULL
692,gj10hqpatcctwjk,0,-1000,-1,single-audio,81,1768896,0.0-7.0-0.23,sound/Language1/ADB.mp3,NULL,NULL,NULL,NULL,NULL
693,gj10hqpatcctwjk,0,-1000,-1,single-audio,82,1770896,0.0-7.0-1.23,sound/Language2/GsharpBA.mp3,NULL,NULL,NULL,NULL,NULL
694,gj10hqpatcctwjk,0,442,NULL,button-response,83,1771340,0.0-7.0-2.23,Array,1,0,test,NULL,NULL
695,gj10hqpatcctwjk,0,-1000,-1,single-audio,84,1773341,0.0-7.0-0.24,sound/Language2/GCDsharp.mp3,NULL,NULL,NULL,NULL,NULL
696,gj10hqpatcctwjk,0,-1000,-1,single-audio,85,1775343,0.0-7.0-1.24,sound/Language1/DsharpED.mp3,NULL,NULL,NULL,NULL,NULL
697,gj10hqpatcctwjk,0,833,NULL,button-response,86,1776179,0.0-7.0-2.24,Array,1,1,test,NULL,NULL
698,gj10hqpatcctwjk,0,-1000,-1,single-audio,87,1778180,0.0-7.0-0.25,sound/Language2/CsharpBA.mp3,NULL,NULL,NULL,NULL,NULL
699,gj10hqpatcctwjk,0,-1000,-1,single-audio,88,1780181,0.0-7.0-1.25,sound/Language1/CCsharpD.mp3,NULL,NULL,NULL,NULL,NULL
700,gj10hqpatcctwjk,0,401,NULL,button-response,89,1780585,0.0-7.0-2.25,Array,1,1,test,NULL,NULL
701,gj10hqpatcctwjk,0,-1000,-1,single-audio,90,1782586,0.0-7.0-0.26,sound/Language1/GGsharpA.mp3,NULL,NULL,NULL,NULL,NULL
702,gj10hqpatcctwjk,0,-1000,-1,single-audio,91,1784588,0.0-7.0-1.26,sound/Language2/CsharpFD.mp3,NULL,NULL,NULL,NULL,NULL
703,gj10hqpatcctwjk,0,662,NULL,button-response,92,1785252,0.0-7.0-2.26,Array,0,1,test,NULL,NULL
704,gj10hqpatcctwjk,0,-1000,-1,single-audio,93,1787253,0.0-7.0-0.27,sound/Language2/CsharpBA.mp3,NULL,NULL,NULL,NULL,NULL
705,gj10hqpatcctwjk,0,-1000,-1,single-audio,94,1789255,0.0-7.0-1.27,sound/Language1/GGsharpA.mp3,NULL,NULL,NULL,NULL,NULL
706,gj10hqpatcctwjk,0,519,NULL,button-response,95,1789776,0.0-7.0-2.27,Array,1,1,test,NULL,NULL
707,gj10hqpatcctwjk,0,-1000,-1,single-audio,96,1791777,0.0-7.0-0.28,sound/Language1/CCsharpD.mp3,NULL,NULL,NULL,NULL,NULL
708,gj10hqpatcctwjk,0,-1000,-1,single-audio,97,1793778,0.0-7.0-1.28,sound/Language2/FsharpGsharpE.mp3,NULL,NULL,NULL,NULL,NULL
709,gj10hqpatcctwjk,0,1595,NULL,button-response,98,1795375,0.0-7.0-2.28,Array,0,1,test,NULL,NULL
710,gj10hqpatcctwjk,0,-1000,-1,single-audio,99,1797376,0.0-7.0-0.29,sound/Language1/GGsharpA.mp3,NULL,NULL,NULL,NULL,NULL
711,gj10hqpatcctwjk,0,-1000,-1,single-audio,100,1799378,0.0-7.0-1.29,sound/Language2/GsharpBA.mp3,NULL,NULL,NULL,NULL,NULL
712,gj10hqpatcctwjk,0,563,NULL,button-response,101,1799945,0.0-7.0-2.29,Array,0,1,test,NULL,NULL
713,gj10hqpatcctwjk,0,-1000,-1,single-audio,102,1801947,0.0-7.0-0.30,sound/Language2/CsharpBA.mp3,NULL,NULL,NULL,NULL,NULL
714,gj10hqpatcctwjk,0,-1000,-1,single-audio,103,1803948,0.0-7.0-1.30,sound/Language1/ADB.mp3,NULL,NULL,NULL,NULL,NULL
715,gj10hqpatcctwjk,0,1942,NULL,button-response,104,1805892,0.0-7.0-2.30,Array,1,1,test,NULL,NULL
716,gj10hqpatcctwjk,0,-1000,-1,single-audio,105,1807893,0.0-7.0-0.31,sound/Language2/GCDsharp.mp3,NULL,NULL,NULL,NULL,NULL
717,gj10hqpatcctwjk,0,-1000,-1,single-audio,106,1809894,0.0-7.0-1.31,sound/Language1/GGsharpA.mp3,NULL,NULL,NULL,NULL,NULL
718,gj10hqpatcctwjk,0,760,NULL,button-response,107,1810657,0.0-7.0-2.31,Array,1,1,test,NULL,NULL
719,gj10hqpatcctwjk,0,-1000,-1,single-audio,108,1812657,0.0-7.0-0.32,sound/Language1/CCsharpD.mp3,NULL,NULL,NULL,NULL,NULL
720,gj10hqpatcctwjk,0,-1000,-1,single-audio,109,1814657,0.0-7.0-1.32,sound/Language2/GsharpBA.mp3,NULL,NULL,NULL,NULL,NULL
721,gj10hqpatcctwjk,0,481,NULL,button-response,110,1815140,0.0-7.0-2.32,Array,0,1,test,NULL,NULL
722,gj10hqpatcctwjk,0,-1000,-1,single-audio,111,1817141,0.0-7.0-0.33,sound/Language1/DFE.mp3,NULL,NULL,NULL,NULL,NULL
723,gj10hqpatcctwjk,0,-1000,-1,single-audio,112,1819142,0.0-7.0-1.33,sound/Language2/ACsharpE.mp3,NULL,NULL,NULL,NULL,NULL
724,gj10hqpatcctwjk,0,479,NULL,button-response,113,1819623,0.0-7.0-2.33,Array,1,0,test,NULL,NULL
725,gj10hqpatcctwjk,0,-1000,-1,single-audio,114,1821623,0.0-7.0-0.34,sound/Language1/FCFsharp.mp3,NULL,NULL,NULL,NULL,NULL
726,gj10hqpatcctwjk,0,-1000,-1,single-audio,115,1823623,0.0-7.0-1.34,sound/Language2/CsharpBA.mp3,NULL,NULL,NULL,NULL,NULL
727,gj10hqpatcctwjk,0,407,NULL,button-response,116,1824034,0.0-7.0-2.34,Array,0,1,test,NULL,NULL
728,gj10hqpatcctwjk,0,-1000,-1,single-audio,117,1826034,0.0-7.0-0.35,sound/Language2/GsharpBA.mp3,NULL,NULL,NULL,NULL,NULL
729,gj10hqpatcctwjk,0,-1000,-1,single-audio,118,1828035,0.0-7.0-1.35,sound/Language1/DFE.mp3,NULL,NULL,NULL,NULL,NULL
730,gj10hqpatcctwjk,0,489,NULL,button-response,119,1828526,0.0-7.0-2.35,Array,1,1,test,NULL,NULL
731,gj10hqpatcctwjk,0,1359,32,text,120,1829886,0.0-8.0,NULL,NULL,NULL,NULL,NULL,NULL
732,gj10hqpatcctwjk,0,41962,NULL,survey-text,121,1871853,0.0-9.0,NULL,NULL,NULL,demographics,"{""Q0"":""1988"",""Q1"":""Female"",""Q2"":""70"",""Q3"":""None"",""Q4"":""None""}",NULL
733,k0zpd97gczhypgw,1,2207,70,text,0,2210,0.0-0.0,NULL,NULL,NULL,NULL,NULL,NULL
734,k0zpd97gczhypgw,1,84527,NULL,button-response,1,86739,0.0-1.0,"<p>This experiment is being conducted at Vass",0,NULL,NULL,NULL,NULL
735,k0zpd97gczhypgw,1,35971,32,text,2,122710,0.0-2.0,NULL,NULL,NULL,NULL,NULL,NULL
736,k0zpd97gczhypgw,1,4968,75,single-audio,3,127781,0.0-3.0,sound/checkvolume.mp3,NULL,NULL,NULL,NULL,NULL
737,k0zpd97gczhypgw,1,9135,32,text,4,136917,0.0-4.0,NULL,NULL,NULL,NULL,NULL,NULL
738,k0zpd97gczhypgw,1,-1000,-1,single-audio,5,351930,0.0-5.0-0.0,sound/Language2/Language2.mp3,NULL,NULL,NULL,NULL,NULL
739,k0zpd97gczhypgw,1,-1000,-1,single-audio,6,371933,0.0-5.0-1.0,sound/silence.mp3,NULL,NULL,NULL,NULL,NULL
740,k0zpd97gczhypgw,1,-1000,-1,single-audio,7,585944,0.0-5.0-0.1,sound/Language2/Language2.mp3,NULL,NULL,NULL,NULL,NULL
741,k0zpd97gczhypgw,1,-1000,-1,single-audio,8,605948,0.0-5.0-1.1,sound/silence.mp3,NULL,NULL,NULL,NULL,NULL
742,k0zpd97gczhypgw,1,-1000,-1,single-audio,9,819959,0.0-5.0-0.2,sound/Language2/Language2.mp3,NULL,NULL,NULL,NULL,NULL
743,k0zpd97gczhypgw,1,-1000,-1,single-audio,10,839962,0.0-5.0-1.2,sound/silence.mp3,NULL,NULL,NULL,NULL,NULL
744,k0zpd97gczhypgw,1,4651,32,text,11,844613,0.0-6.0,NULL,NULL,NULL,NULL,NULL,NULL
745,k0zpd97gczhypgw,1,-1000,-1,single-audio,12,847618,0.0-7.0-0.0,sound/Language2/CsharpBA.mp3,NULL,NULL,NULL,NULL,NULL
746,k0zpd97gczhypgw,1,-1000,-1,single-audio,13,849619,0.0-7.0-1.0,sound/Language1/DFE.mp3,NULL,NULL,NULL,NULL,NULL
747,k0zpd97gczhypgw,1,1036,NULL,button-response,14,850658,0.0-7.0-2.0,Array,0,1,test,NULL,NULL
748,k0zpd97gczhypgw,1,-1000,-1,single-audio,15,852663,0.0-7.0-0.1,sound/Language2/GsharpBA.mp3,NULL,NULL,NULL,NULL,NULL
749,k0zpd97gczhypgw,1,-1000,-1,single-audio,16,854668,0.0-7.0-1.1,sound/Language1/GGsharpA.mp3,NULL,NULL,NULL,NULL,NULL
750,k0zpd97gczhypgw,1,761,NULL,button-response,17,855430,0.0-7.0-2.1,Array,0,1,test,NULL,NULL
751,k0zpd97gczhypgw,1,-1000,-1,single-audio,18,857434,0.0-7.0-0.2,sound/Language2/CsharpFD.mp3,NULL,NULL,NULL,NULL,NULL
752,k0zpd97gczhypgw,1,-1000,-1,single-audio,19,859437,0.0-7.0-1.2,sound/Language1/CCsharpD.mp3,NULL,NULL,NULL,NULL,NULL
753,k0zpd97gczhypgw,1,700,NULL,button-response,20,860137,0.0-7.0-2.2,Array,1,0,test,NULL,NULL
754,k0zpd97gczhypgw,1,-1000,-1,single-audio,21,862142,0.0-7.0-0.3,sound/Language1/GGsharpA.mp3,NULL,NULL,NULL,NULL,NULL
755,k0zpd97gczhypgw,1,-1000,-1,single-audio,22,864146,0.0-7.0-1.3,sound/Language2/GCDsharp.mp3,NULL,NULL,NULL,NULL,NULL
756,k0zpd97gczhypgw,1,669,NULL,button-response,23,864815,0.0-7.0-2.3,Array,0,0,test,NULL,NULL
757,k0zpd97gczhypgw,1,-1000,-1,single-audio,24,866820,0.0-7.0-0.4,sound/Language1/GGsharpA.mp3,NULL,NULL,NULL,NULL,NULL
758,k0zpd97gczhypgw,1,-1000,-1,single-audio,25,868823,0.0-7.0-1.4,sound/Language2/ACsharpE.mp3,NULL,NULL,NULL,NULL,NULL
759,k0zpd97gczhypgw,1,952,NULL,button-response,26,869775,0.0-7.0-2.4,Array,0,0,test,NULL,NULL
760,k0zpd97gczhypgw,1,-1000,-1,single-audio,27,871778,0.0-7.0-0.5,sound/Language2/CsharpFD.mp3,NULL,NULL,NULL,NULL,NULL
761,k0zpd97gczhypgw,1,-1000,-1,single-audio,28,873782,0.0-7.0-1.5,sound/Language1/ADB.mp3,NULL,NULL,NULL,NULL,NULL
762,k0zpd97gczhypgw,1,3256,NULL,button-response,29,877038,0.0-7.0-2.5,Array,1,0,test,NULL,NULL
763,k0zpd97gczhypgw,1,-1000,-1,single-audio,30,879040,0.0-7.0-0.6,sound/Language2/GCDsharp.mp3,NULL,NULL,NULL,NULL,NULL
764,k0zpd97gczhypgw,1,-1000,-1,single-audio,31,881042,0.0-7.0-1.6,sound/Language1/DsharpED.mp3,NULL,NULL,NULL,NULL,NULL
765,k0zpd97gczhypgw,1,2231,NULL,button-response,32,883274,0.0-7.0-2.6,Array,0,1,test,NULL,NULL
766,k0zpd97gczhypgw,1,-1000,-1,single-audio,33,885280,0.0-7.0-0.7,sound/Language1/CCsharpD.mp3,NULL,NULL,NULL,NULL,NULL
767,k0zpd97gczhypgw,1,-1000,-1,single-audio,34,887280,0.0-7.0-1.7,sound/Language2/GsharpBA.mp3,NULL,NULL,NULL,NULL,NULL
768,k0zpd97gczhypgw,1,631,NULL,button-response,35,887912,0.0-7.0-2.7,Array,0,0,test,NULL,NULL
769,k0zpd97gczhypgw,1,-1000,-1,single-audio,36,889913,0.0-7.0-0.8,sound/Language2/GCDsharp.mp3,NULL,NULL,NULL,NULL,NULL
770,k0zpd97gczhypgw,1,-1000,-1,single-audio,37,891917,0.0-7.0-1.8,sound/Language1/CCsharpD.mp3,NULL,NULL,NULL,NULL,NULL
771,k0zpd97gczhypgw,1,532,NULL,button-response,38,892449,0.0-7.0-2.8,Array,1,0,test,NULL,NULL
772,k0zpd97gczhypgw,1,-1000,-1,single-audio,39,894451,0.0-7.0-0.9,sound/Language2/ACsharpE.mp3,NULL,NULL,NULL,NULL,NULL
773,k0zpd97gczhypgw,1,-1000,-1,single-audio,40,896453,0.0-7.0-1.9,sound/Language1/FCFsharp.mp3,NULL,NULL,NULL,NULL,NULL
774,k0zpd97gczhypgw,1,484,NULL,button-response,41,896938,0.0-7.0-2.9,Array,0,1,test,NULL,NULL
775,k0zpd97gczhypgw,1,-1000,-1,single-audio,42,898938,0.0-7.0-0.10,sound/Language1/DsharpED.mp3,NULL,NULL,NULL,NULL,NULL
776,k0zpd97gczhypgw,1,-1000,-1,single-audio,43,900939,0.0-7.0-1.10,sound/Language2/ACsharpE.mp3,NULL,NULL,NULL,NULL,NULL
777,k0zpd97gczhypgw,1,685,NULL,button-response,44,901624,0.0-7.0-2.10,Array,0,0,test,NULL,NULL
778,k0zpd97gczhypgw,1,-1000,-1,single-audio,45,903629,0.0-7.0-0.11,sound/Language2/CsharpBA.mp3,NULL,NULL,NULL,NULL,NULL
779,k0zpd97gczhypgw,1,-1000,-1,single-audio,46,905634,0.0-7.0-1.11,sound/Language1/DsharpED.mp3,NULL,NULL,NULL,NULL,NULL
780,k0zpd97gczhypgw,1,892,NULL,button-response,47,906528,0.0-7.0-2.11,Array,0,1,test,NULL,NULL
781,k0zpd97gczhypgw,1,-1000,-1,single-audio,48,908530,0.0-7.0-0.12,sound/Language2/CsharpBA.mp3,NULL,NULL,NULL,NULL,NULL
782,k0zpd97gczhypgw,1,-1000,-1,single-audio,49,910531,0.0-7.0-1.12,sound/Language1/CCsharpD.mp3,NULL,NULL,NULL,NULL,NULL
783,k0zpd97gczhypgw,1,485,NULL,button-response,50,911017,0.0-7.0-2.12,Array,0,1,test,NULL,NULL
784,k0zpd97gczhypgw,1,-1000,-1,single-audio,51,913021,0.0-7.0-0.13,sound/Language2/CsharpBA.mp3,NULL,NULL,NULL,NULL,NULL
785,k0zpd97gczhypgw,1,-1000,-1,single-audio,52,915024,0.0-7.0-1.13,sound/Language1/FCFsharp.mp3,NULL,NULL,NULL,NULL,NULL
786,k0zpd97gczhypgw,1,4401,NULL,button-response,53,919425,0.0-7.0-2.13,Array,0,1,test,NULL,NULL
787,k0zpd97gczhypgw,1,-1000,-1,single-audio,54,921426,0.0-7.0-0.14,sound/Language1/ADB.mp3,NULL,NULL,NULL,NULL,NULL
788,k0zpd97gczhypgw,1,-1000,-1,single-audio,55,923429,0.0-7.0-1.14,sound/Language2/GsharpBA.mp3,NULL,NULL,NULL,NULL,NULL
789,k0zpd97gczhypgw,1,702,NULL,button-response,56,924133,0.0-7.0-2.14,Array,1,1,test,NULL,NULL
790,k0zpd97gczhypgw,1,-1000,-1,single-audio,57,926134,0.0-7.0-0.15,sound/Language1/DsharpED.mp3,NULL,NULL,NULL,NULL,NULL
791,k0zpd97gczhypgw,1,-1000,-1,single-audio,58,928135,0.0-7.0-1.15,sound/Language2/FsharpGsharpE.mp3,NULL,NULL,NULL,NULL,NULL
792,k0zpd97gczhypgw,1,642,NULL,button-response,59,928779,0.0-7.0-2.15,Array,0,0,test,NULL,NULL
793,k0zpd97gczhypgw,1,-1000,-1,single-audio,60,930784,0.0-7.0-0.16,sound/Language2/CsharpFD.mp3,NULL,NULL,NULL,NULL,NULL
794,k0zpd97gczhypgw,1,-1000,-1,single-audio,61,932786,0.0-7.0-1.16,sound/Language1/DFE.mp3,NULL,NULL,NULL,NULL,NULL
795,k0zpd97gczhypgw,1,732,NULL,button-response,62,933519,0.0-7.0-2.16,Array,1,0,test,NULL,NULL
796,k0zpd97gczhypgw,1,-1000,-1,single-audio,63,935520,0.0-7.0-0.17,sound/Language2/FsharpGsharpE.mp3,NULL,NULL,NULL,NULL,NULL
797,k0zpd97gczhypgw,1,-1000,-1,single-audio,64,937523,0.0-7.0-1.17,sound/Language1/ADB.mp3,NULL,NULL,NULL,NULL,NULL
798,k0zpd97gczhypgw,1,461,NULL,button-response,65,937984,0.0-7.0-2.17,Array,1,0,test,NULL,NULL
799,k0zpd97gczhypgw,1,-1000,-1,single-audio,66,939988,0.0-7.0-0.18,sound/Language2/GsharpBA.mp3,NULL,NULL,NULL,NULL,NULL
800,k0zpd97gczhypgw,1,-1000,-1,single-audio,67,941992,0.0-7.0-1.18,sound/Language1/DFE.mp3,NULL,NULL,NULL,NULL,NULL
801,k0zpd97gczhypgw,1,428,NULL,button-response,68,942421,0.0-7.0-2.18,Array,0,1,test,NULL,NULL
802,k0zpd97gczhypgw,1,-1000,-1,single-audio,69,944425,0.0-7.0-0.19,sound/Language2/GCDsharp.mp3,NULL,NULL,NULL,NULL,NULL
803,k0zpd97gczhypgw,1,-1000,-1,single-audio,70,946428,0.0-7.0-1.19,sound/Language1/FCFsharp.mp3,NULL,NULL,NULL,NULL,NULL
804,k0zpd97gczhypgw,1,453,NULL,button-response,71,946881,0.0-7.0-2.19,Array,0,1,test,NULL,NULL
805,k0zpd97gczhypgw,1,-1000,-1,single-audio,72,948883,0.0-7.0-0.20,sound/Language2/FsharpGsharpE.mp3,NULL,NULL,NULL,NULL,NULL
806,k0zpd97gczhypgw,1,-1000,-1,single-audio,73,950886,0.0-7.0-1.20,sound/Language1/GGsharpA.mp3,NULL,NULL,NULL,NULL,NULL
807,k0zpd97gczhypgw,1,460,NULL,button-response,74,951346,0.0-7.0-2.20,Array,1,0,test,NULL,NULL
808,k0zpd97gczhypgw,1,-1000,-1,single-audio,75,953347,0.0-7.0-0.21,sound/Language1/FCFsharp.mp3,NULL,NULL,NULL,NULL,NULL
809,k0zpd97gczhypgw,1,-1000,-1,single-audio,76,955350,0.0-7.0-1.21,sound/Language2/FsharpGsharpE.mp3,NULL,NULL,NULL,NULL,NULL
810,k0zpd97gczhypgw,1,1054,NULL,button-response,77,956404,0.0-7.0-2.21,Array,0,0,test,NULL,NULL
811,k0zpd97gczhypgw,1,-1000,-1,single-audio,78,958409,0.0-7.0-0.22,sound/Language2/GsharpBA.mp3,NULL,NULL,NULL,NULL,NULL
812,k0zpd97gczhypgw,1,-1000,-1,single-audio,79,960411,0.0-7.0-1.22,sound/Language1/FCFsharp.mp3,NULL,NULL,NULL,NULL,NULL
813,k0zpd97gczhypgw,1,1004,NULL,button-response,80,961416,0.0-7.0-2.22,Array,0,1,test,NULL,NULL
814,k0zpd97gczhypgw,1,-1000,-1,single-audio,81,963418,0.0-7.0-0.23,sound/Language2/FsharpGsharpE.mp3,NULL,NULL,NULL,NULL,NULL
815,k0zpd97gczhypgw,1,-1000,-1,single-audio,82,965422,0.0-7.0-1.23,sound/Language1/DFE.mp3,NULL,NULL,NULL,NULL,NULL
816,k0zpd97gczhypgw,1,902,NULL,button-response,83,966326,0.0-7.0-2.23,Array,0,1,test,NULL,NULL
817,k0zpd97gczhypgw,1,-1000,-1,single-audio,84,968329,0.0-7.0-0.24,sound/Language2/ACsharpE.mp3,NULL,NULL,NULL,NULL,NULL
818,k0zpd97gczhypgw,1,-1000,-1,single-audio,85,970332,0.0-7.0-1.24,sound/Language1/DFE.mp3,NULL,NULL,NULL,NULL,NULL
819,k0zpd97gczhypgw,1,849,NULL,button-response,86,971182,0.0-7.0-2.24,Array,0,1,test,NULL,NULL
820,k0zpd97gczhypgw,1,-1000,-1,single-audio,87,973186,0.0-7.0-0.25,sound/Language1/DFE.mp3,NULL,NULL,NULL,NULL,NULL
821,k0zpd97gczhypgw,1,-1000,-1,single-audio,88,975189,0.0-7.0-1.25,sound/Language2/GCDsharp.mp3,NULL,NULL,NULL,NULL,NULL
822,k0zpd97gczhypgw,1,473,NULL,button-response,89,975663,0.0-7.0-2.25,Array,0,0,test,NULL,NULL
823,k0zpd97gczhypgw,1,-1000,-1,single-audio,90,977665,0.0-7.0-0.26,sound/Language1/ADB.mp3,NULL,NULL,NULL,NULL,NULL
824,k0zpd97gczhypgw,1,-1000,-1,single-audio,91,979666,0.0-7.0-1.26,sound/Language2/ACsharpE.mp3,NULL,NULL,NULL,NULL,NULL
825,k0zpd97gczhypgw,1,457,NULL,button-response,92,980123,0.0-7.0-2.26,Array,0,0,test,NULL,NULL
826,k0zpd97gczhypgw,1,-1000,-1,single-audio,93,982127,0.0-7.0-0.27,sound/Language1/DsharpED.mp3,NULL,NULL,NULL,NULL,NULL
827,k0zpd97gczhypgw,1,-1000,-1,single-audio,94,984130,0.0-7.0-1.27,sound/Language2/GsharpBA.mp3,NULL,NULL,NULL,NULL,NULL
828,k0zpd97gczhypgw,1,459,NULL,button-response,95,984589,0.0-7.0-2.27,Array,1,1,test,NULL,NULL
829,k0zpd97gczhypgw,1,-1000,-1,single-audio,96,986591,0.0-7.0-0.28,sound/Language1/GGsharpA.mp3,NULL,NULL,NULL,NULL,NULL
830,k0zpd97gczhypgw,1,-1000,-1,single-audio,97,988594,0.0-7.0-1.28,sound/Language2/CsharpFD.mp3,NULL,NULL,NULL,NULL,NULL
831,k0zpd97gczhypgw,1,883,NULL,button-response,98,989477,0.0-7.0-2.28,Array,0,0,test,NULL,NULL
832,k0zpd97gczhypgw,1,-1000,-1,single-audio,99,991483,0.0-7.0-0.29,sound/Language2/CsharpBA.mp3,NULL,NULL,NULL,NULL,NULL
833,k0zpd97gczhypgw,1,-1000,-1,single-audio,100,993487,0.0-7.0-1.29,sound/Language1/ADB.mp3,NULL,NULL,NULL,NULL,NULL
834,k0zpd97gczhypgw,1,518,NULL,button-response,101,994005,0.0-7.0-2.29,Array,0,1,test,NULL,NULL
835,k0zpd97gczhypgw,1,-1000,-1,single-audio,102,996006,0.0-7.0-0.30,sound/Language1/FCFsharp.mp3,NULL,NULL,NULL,NULL,NULL
836,k0zpd97gczhypgw,1,-1000,-1,single-audio,103,998009,0.0-7.0-1.30,sound/Language2/CsharpFD.mp3,NULL,NULL,NULL,NULL,NULL
837,k0zpd97gczhypgw,1,431,NULL,button-response,104,998440,0.0-7.0-2.30,Array,0,0,test,NULL,NULL
838,k0zpd97gczhypgw,1,-1000,-1,single-audio,105,1000441,0.0-7.0-0.31,sound/Language2/CsharpFD.mp3,NULL,NULL,NULL,NULL,NULL
839,k0zpd97gczhypgw,1,-1000,-1,single-audio,106,1002444,0.0-7.0-1.31,sound/Language1/DsharpED.mp3,NULL,NULL,NULL,NULL,NULL
840,k0zpd97gczhypgw,1,1256,NULL,button-response,107,1003700,0.0-7.0-2.31,Array,0,1,test,NULL,NULL
841,k0zpd97gczhypgw,1,-1000,-1,single-audio,108,1005703,0.0-7.0-0.32,sound/Language1/ADB.mp3,NULL,NULL,NULL,NULL,NULL
842,k0zpd97gczhypgw,1,-1000,-1,single-audio,109,1007705,0.0-7.0-1.32,sound/Language2/ACsharpE.mp3,NULL,NULL,NULL,NULL,NULL
843,k0zpd97gczhypgw,1,1084,NULL,button-response,110,1008790,0.0-7.0-2.32,Array,0,0,test,NULL,NULL
844,k0zpd97gczhypgw,1,-1000,-1,single-audio,111,1010791,0.0-7.0-0.33,sound/Language2/FsharpGsharpE.mp3,NULL,NULL,NULL,NULL,NULL
845,k0zpd97gczhypgw,1,-1000,-1,single-audio,112,1012794,0.0-7.0-1.33,sound/Language1/CCsharpD.mp3,NULL,NULL,NULL,NULL,NULL
846,k0zpd97gczhypgw,1,1484,NULL,button-response,113,1014279,0.0-7.0-2.33,Array,1,0,test,NULL,NULL
847,k0zpd97gczhypgw,1,-1000,-1,single-audio,114,1016283,0.0-7.0-0.34,sound/Language1/GGsharpA.mp3,NULL,NULL,NULL,NULL,NULL
848,k0zpd97gczhypgw,1,-1000,-1,single-audio,115,1018284,0.0-7.0-1.34,sound/Language2/CsharpBA.mp3,NULL,NULL,NULL,NULL,NULL
849,k0zpd97gczhypgw,1,568,NULL,button-response,116,1018853,0.0-7.0-2.34,Array,1,1,test,NULL,NULL
850,k0zpd97gczhypgw,1,-1000,-1,single-audio,117,1020857,0.0-7.0-0.35,sound/Language1/CCsharpD.mp3,NULL,NULL,NULL,NULL,NULL
851,k0zpd97gczhypgw,1,-1000,-1,single-audio,118,1022859,0.0-7.0-1.35,sound/Language2/ACsharpE.mp3,NULL,NULL,NULL,NULL,NULL
852,k0zpd97gczhypgw,1,477,NULL,button-response,119,1023336,0.0-7.0-2.35,Array,0,0,test,NULL,NULL
853,k0zpd97gczhypgw,1,1325,32,text,120,1024661,0.0-8.0,NULL,NULL,NULL,NULL,NULL,NULL
854,k0zpd97gczhypgw,1,20483,NULL,survey-text,121,1045146,0.0-9.0,NULL,NULL,NULL,demographics,"{""Q0"":""1971"",""Q1"":""male"",""Q2"":""40"",""Q3"":""no"",""Q4"":""no""}",NULL
855,cm061nnobhq3vh2,0,2205,32,text,0,2208,0.0-0.0,NULL,NULL,NULL,NULL,NULL,NULL
856,cm061nnobhq3vh2,0,8724,NULL,button-response,1,10934,0.0-1.0,"<p>This experiment is being conducted at Vass",0,NULL,NULL,NULL,NULL
857,cm061nnobhq3vh2,0,2406,32,text,2,13342,0.0-2.0,NULL,NULL,NULL,NULL,NULL,NULL
858,cm061nnobhq3vh2,0,4111,75,single-audio,3,17548,0.0-3.0,sound/checkvolume.mp3,NULL,NULL,NULL,NULL,NULL
859,cm061nnobhq3vh2,0,10415,32,text,4,27965,0.0-4.0,NULL,NULL,NULL,NULL,NULL,NULL
860,cm061nnobhq3vh2,0,-1000,-1,single-audio,5,242967,0.0-5.0-0.0,sound/Language1/Language1.mp3,NULL,NULL,NULL,NULL,NULL
861,cm061nnobhq3vh2,0,-1000,-1,single-audio,6,262967,0.0-5.0-1.0,sound/silence.mp3,NULL,NULL,NULL,NULL,NULL
862,cm061nnobhq3vh2,0,-1000,-1,single-audio,7,476970,0.0-5.0-0.1,sound/Language1/Language1.mp3,NULL,NULL,NULL,NULL,NULL
863,cm061nnobhq3vh2,0,-1000,-1,single-audio,8,496970,0.0-5.0-1.1,sound/silence.mp3,NULL,NULL,NULL,NULL,NULL
864,cm061nnobhq3vh2,0,-1000,-1,single-audio,9,710973,0.0-5.0-0.2,sound/Language1/Language1.mp3,NULL,NULL,NULL,NULL,NULL
865,cm061nnobhq3vh2,0,-1000,-1,single-audio,10,730975,0.0-5.0-1.2,sound/silence.mp3,NULL,NULL,NULL,NULL,NULL
866,cm061nnobhq3vh2,0,6369,32,text,11,737345,0.0-6.0,NULL,NULL,NULL,NULL,NULL,NULL
867,cm061nnobhq3vh2,0,-1000,-1,single-audio,12,740346,0.0-7.0-0.0,sound/Language2/CsharpFD.mp3,NULL,NULL,NULL,NULL,NULL
868,cm061nnobhq3vh2,0,-1000,-1,single-audio,13,742347,0.0-7.0-1.0,sound/Language1/DFE.mp3,NULL,NULL,NULL,NULL,NULL
869,cm061nnobhq3vh2,0,737,NULL,button-response,14,743085,0.0-7.0-2.0,Array,1,1,test,NULL,NULL
870,cm061nnobhq3vh2,0,-1000,-1,single-audio,15,745090,0.0-7.0-0.1,sound/Language2/FsharpGsharpE.mp3,NULL,NULL,NULL,NULL,NULL
871,cm061nnobhq3vh2,0,-1000,-1,single-audio,16,747095,0.0-7.0-1.1,sound/Language1/ADB.mp3,NULL,NULL,NULL,NULL,NULL
872,cm061nnobhq3vh2,0,665,NULL,button-response,17,747761,0.0-7.0-2.1,Array,1,1,test,NULL,NULL
873,cm061nnobhq3vh2,0,-1000,-1,single-audio,18,749761,0.0-7.0-0.2,sound/Language1/GGsharpA.mp3,NULL,NULL,NULL,NULL,NULL
874,cm061nnobhq3vh2,0,-1000,-1,single-audio,19,751763,0.0-7.0-1.2,sound/Language2/FsharpGsharpE.mp3,NULL,NULL,NULL,NULL,NULL
875,cm061nnobhq3vh2,0,669,NULL,button-response,20,752433,0.0-7.0-2.2,Array,0,1,test,NULL,NULL
876,cm061nnobhq3vh2,0,-1000,-1,single-audio,21,754433,0.0-7.0-0.3,sound/Language2/ACsharpE.mp3,NULL,NULL,NULL,NULL,NULL
877,cm061nnobhq3vh2,0,-1000,-1,single-audio,22,756433,0.0-7.0-1.3,sound/Language1/ADB.mp3,NULL,NULL,NULL,NULL,NULL
878,cm061nnobhq3vh2,0,447,NULL,button-response,23,756881,0.0-7.0-2.3,Array,1,1,test,NULL,NULL
879,cm061nnobhq3vh2,0,-1000,-1,single-audio,24,758881,0.0-7.0-0.4,sound/Language2/GCDsharp.mp3,NULL,NULL,NULL,NULL,NULL
880,cm061nnobhq3vh2,0,-1000,-1,single-audio,25,760903,0.0-7.0-1.4,sound/Language1/DsharpED.mp3,NULL,NULL,NULL,NULL,NULL
881,cm061nnobhq3vh2,0,648,NULL,button-response,26,761552,0.0-7.0-2.4,Array,1,1,test,NULL,NULL
882,cm061nnobhq3vh2,0,-1000,-1,single-audio,27,763552,0.0-7.0-0.5,sound/Language2/GsharpBA.mp3,NULL,NULL,NULL,NULL,NULL
883,cm061nnobhq3vh2,0,-1000,-1,single-audio,28,765552,0.0-7.0-1.5,sound/Language1/DFE.mp3,NULL,NULL,NULL,NULL,NULL
884,cm061nnobhq3vh2,0,1583,NULL,button-response,29,767135,0.0-7.0-2.5,Array,0,0,test,NULL,NULL
885,cm061nnobhq3vh2,0,-1000,-1,single-audio,30,769144,0.0-7.0-0.6,sound/Language1/CCsharpD.mp3,NULL,NULL,NULL,NULL,NULL
886,cm061nnobhq3vh2,0,-1000,-1,single-audio,31,771146,0.0-7.0-1.6,sound/Language2/ACsharpE.mp3,NULL,NULL,NULL,NULL,NULL
887,cm061nnobhq3vh2,0,436,NULL,button-response,32,771583,0.0-7.0-2.6,Array,0,1,test,NULL,NULL
888,cm061nnobhq3vh2,0,-1000,-1,single-audio,33,773585,0.0-7.0-0.7,sound/Language1/ADB.mp3,NULL,NULL,NULL,NULL,NULL
889,cm061nnobhq3vh2,0,-1000,-1,single-audio,34,775586,0.0-7.0-1.7,sound/Language2/ACsharpE.mp3,NULL,NULL,NULL,NULL,NULL
890,cm061nnobhq3vh2,0,869,NULL,button-response,35,776456,0.0-7.0-2.7,Array,0,1,test,NULL,NULL
891,cm061nnobhq3vh2,0,-1000,-1,single-audio,36,778457,0.0-7.0-0.8,sound/Language2/ACsharpE.mp3,NULL,NULL,NULL,NULL,NULL
892,cm061nnobhq3vh2,0,-1000,-1,single-audio,37,780458,0.0-7.0-1.8,sound/Language1/DsharpED.mp3,NULL,NULL,NULL,NULL,NULL
