row,key_press,trial_type,rt,trial_index,time_elapsed,internal_node_id,stimulus,button_pressed,pretest,correct,color,repeat,n_since_repeat,correct_response,isImportant,phase,responses,value,subject_id,test_condition,attended
1,32,text,1673,0,1675,0.0-0.0,NULL,NULL,NULL,NULL,NULL,NULL,NULL,NULL,NULL,NULL,NULL,NULL,mltjsm2eause10x,0,NULL
2,NULL,button-response,6473,1,8149,0.0-1.0,"<p>This experiment is being conducted at Vass",0,NULL,NULL,NULL,NULL,NULL,NULL,NULL,NULL,NULL,NULL,mltjsm2eause10x,0,NULL
3,32,text,9869,2,18019,0.0-2.0,NULL,NULL,NULL,NULL,NULL,NULL,NULL,NULL,NULL,NULL,NULL,NULL,mltjsm2eause10x,0,NULL
4,82,single-stim,848,3,18868,0.0-3.0-0.0,gifs/RC.gif,NULL,NULL,1,NULL,NULL,NULL,82,NULL,pretest-colors,NULL,NULL,mltjsm2eause10x,0,NULL
5,71,single-stim,582,4,19450,0.0-3.0-0.1,gifs/GT.gif,NULL,NULL,1,NULL,NULL,NULL,71,NULL,pretest-colors,NULL,NULL,mltjsm2eause10x,0,NULL
6,82,single-stim,743,5,20194,0.0-3.0-0.2,gifs/RT.gif,NULL,NULL,1,NULL,NULL,NULL,82,NULL,pretest-colors,NULL,NULL,mltjsm2eause10x,0,NULL
7,66,single-stim,743,6,20938,0.0-3.0-0.3,gifs/BS.gif,NULL,NULL,1,NULL,NULL,NULL,66,NULL,pretest-colors,NULL,NULL,mltjsm2eause10x,0,NULL
8,66,single-stim,815,7,21754,0.0-3.0-0.4,gifs/BC.gif,NULL,NULL,1,NULL,NULL,NULL,66,NULL,pretest-colors,NULL,NULL,mltjsm2eause10x,0,NULL
9,71,single-stim,647,8,22403,0.0-3.0-0.5,gifs/GS.gif,NULL,NULL,1,NULL,NULL,NULL,71,NULL,pretest-colors,NULL,NULL,mltjsm2eause10x,0,NULL
10,32,text,5824,9,28228,0.0-4.0,NULL,NULL,NULL,NULL,NULL,NULL,NULL,NULL,NULL,NULL,NULL,NULL,mltjsm2eause10x,0,NULL
11,32,text,4227,10,32455,0.0-5.0,NULL,NULL,NULL,NULL,NULL,NULL,NULL,NULL,NULL,NULL,NULL,NULL,mltjsm2eause10x,0,NULL
12,-1,single-stim,-1,11,32866,0.0-6.0-0.0,gifs/RC.gif,NULL,NULL,NULL,NULL,NULL,NULL,NULL,NULL,NULL,NULL,NULL,mltjsm2eause10x,0,NULL
13,-1,single-stim,-1,12,33481,0.0-6.0-0.1,gifs/GS.gif,NULL,NULL,NULL,NULL,NULL,NULL,NULL,NULL,NULL,NULL,NULL,mltjsm2eause10x,0,NULL
14,-1,single-stim,-1,13,34095,0.0-6.0-0.2,gifs/GS.gif,NULL,NULL,NULL,NULL,NULL,NULL,NULL,NULL,NULL,NULL,NULL,mltjsm2eause10x,0,NULL
15,32,text,5040,14,39340,0.0-7.0,NULL,NULL,NULL,NULL,NULL,NULL,NULL,NULL,NULL,NULL,NULL,NULL,mltjsm2eause10x,0,NULL
16,-1,single-stim,-1,15,39748,0.0-8.0-0.0,gifs/GS.gif,NULL,NULL,NULL,NULL,NULL,NULL,NULL,NULL,NULL,NULL,NULL,mltjsm2eause10x,0,NULL
17,-1,single-stim,-1,16,40352,0.0-8.0-0.1,gifs/RC.gif,NULL,NULL,NULL,NULL,NULL,NULL,NULL,NULL,NULL,NULL,NULL,mltjsm2eause10x,0,NULL
18,-1,single-stim,-1,17,40965,0.0-8.0-0.2,gifs/RT.gif,NULL,NULL,NULL,NULL,NULL,NULL,NULL,NULL,NULL,NULL,NULL,mltjsm2eause10x,0,NULL
19,-1,single-stim,-1,18,41578,0.0-8.0-0.3,gifs/GS.gif,NULL,NULL,NULL,NULL,NULL,NULL,NULL,NULL,NULL,NULL,NULL,mltjsm2eause10x,0,NULL
20,32,text,3567,19,45350,0.0-9.0,NULL,NULL,NULL,NULL,NULL,NULL,NULL,NULL,NULL,NULL,NULL,NULL,mltjsm2eause10x,0,NULL
21,32,text,3150,20,48500,0.0-10.0,NULL,NULL,NULL,NULL,NULL,NULL,NULL,NULL,NULL,NULL,NULL,NULL,mltjsm2eause10x,0,NULL
22,-1,single-stim,-1,21,49918,0.0-11.0-0.0,Symbol/2.png,NULL,NULL,NULL,Green,0,NULL,NULL,NULL,NULL,NULL,NULL,mltjsm2eause10x,0,NULL
23,-1,single-stim,-1,22,50538,0.0-11.0-0.1,Symbol/24.png,NULL,NULL,NULL,Green,0,NULL,NULL,NULL,NULL,NULL,NULL,mltjsm2eause10x,0,NULL
24,-1,single-stim,-1,23,51155,0.0-11.0-0.2,Symbol/23.png,NULL,NULL,NULL,Green,0,NULL,NULL,NULL,NULL,NULL,NULL,mltjsm2eause10x,0,NULL
25,-1,single-stim,-1,24,51766,0.0-11.0-0.3,Symbol/33.png,NULL,NULL,NULL,Red,0,NULL,NULL,NULL,NULL,NULL,NULL,mltjsm2eause10x,0,NULL
26,-1,single-stim,-1,25,52384,0.0-11.0-0.4,Symbol/4.png,NULL,NULL,NULL,Green,0,NULL,NULL,NULL,NULL,NULL,NULL,mltjsm2eause10x,0,NULL
27,-1,single-stim,-1,26,53004,0.0-11.0-0.5,Symbol/37.png,NULL,NULL,NULL,Red,0,NULL,NULL,NULL,NULL,NULL,NULL,mltjsm2eause10x,0,NULL
28,-1,single-stim,-1,27,53631,0.0-11.0-0.6,Symbol/32.png,NULL,NULL,NULL,Red,0,NULL,NULL,NULL,NULL,NULL,NULL,mltjsm2eause10x,0,NULL
29,-1,single-stim,-1,28,54237,0.0-11.0-0.7,Symbol/19.png,NULL,NULL,NULL,Green,0,NULL,NULL,NULL,NULL,NULL,NULL,mltjsm2eause10x,0,NULL
30,-1,single-stim,-1,29,54849,0.0-11.0-0.8,Symbol/32.png,NULL,NULL,NULL,Red,0,NULL,NULL,NULL,NULL,NULL,NULL,mltjsm2eause10x,0,NULL
31,-1,single-stim,-1,30,55460,0.0-11.0-0.9,Symbol/40.png,NULL,NULL,NULL,Red,0,NULL,NULL,NULL,NULL,NULL,NULL,mltjsm2eause10x,0,NULL
32,-1,single-stim,-1,31,56068,0.0-11.0-0.10,Symbol/45.png,NULL,NULL,NULL,Red,0,NULL,NULL,NULL,NULL,NULL,NULL,mltjsm2eause10x,0,NULL
33,-1,single-stim,-1,32,56699,0.0-11.0-0.11,Symbol/25.png,NULL,NULL,NULL,Red,0,NULL,NULL,NULL,NULL,NULL,NULL,mltjsm2eause10x,0,NULL
34,-1,single-stim,-1,33,57317,0.0-11.0-0.12,Symbol/25.png,NULL,NULL,NULL,Red,0,NULL,NULL,NULL,NULL,NULL,NULL,mltjsm2eause10x,0,NULL
35,-1,single-stim,-1,34,57934,0.0-11.0-0.13,Symbol/27.png,NULL,NULL,NULL,Red,0,NULL,NULL,NULL,NULL,NULL,NULL,mltjsm2eause10x,0,NULL
36,-1,single-stim,-1,35,58556,0.0-11.0-0.14,Symbol/42.png,NULL,NULL,NULL,Red,0,NULL,NULL,NULL,NULL,NULL,NULL,mltjsm2eause10x,0,NULL
37,-1,single-stim,-1,36,59168,0.0-11.0-0.15,Symbol/36.png,NULL,NULL,NULL,Red,0,NULL,NULL,NULL,NULL,NULL,NULL,mltjsm2eause10x,0,NULL
38,-1,single-stim,-1,37,59785,0.0-11.0-0.16,Symbol/5.png,NULL,NULL,NULL,Green,0,NULL,NULL,NULL,NULL,NULL,NULL,mltjsm2eause10x,0,NULL
39,-1,single-stim,-1,38,60400,0.0-11.0-0.17,Symbol/5.png,NULL,NULL,NULL,Green,1,0,NULL,NULL,NULL,NULL,NULL,mltjsm2eause10x,0,NULL
40,-1,single-stim,-1,39,61015,0.0-11.0-0.18,Symbol/33.png,NULL,NULL,NULL,Red,0,1,NULL,NULL,NULL,NULL,NULL,mltjsm2eause10x,0,NULL
41,-1,single-stim,-1,40,61646,0.0-11.0-0.19,Symbol/37.png,NULL,NULL,NULL,Red,0,2,NULL,NULL,NULL,NULL,NULL,mltjsm2eause10x,0,NULL
42,-1,single-stim,-1,41,62265,0.0-11.0-0.20,Symbol/32.png,NULL,NULL,NULL,Red,0,3,NULL,NULL,NULL,NULL,NULL,mltjsm2eause10x,0,NULL
43,-1,single-stim,-1,42,62883,0.0-11.0-0.21,Symbol/14.png,NULL,NULL,NULL,Green,0,4,NULL,NULL,NULL,NULL,NULL,mltjsm2eause10x,0,NULL
44,-1,single-stim,-1,43,63507,0.0-11.0-0.22,Symbol/15.png,NULL,NULL,NULL,Green,0,5,NULL,NULL,NULL,NULL,NULL,mltjsm2eause10x,0,NULL
45,-1,single-stim,-1,44,64134,0.0-11.0-0.23,Symbol/10.png,NULL,NULL,NULL,Green,0,6,NULL,NULL,NULL,NULL,NULL,mltjsm2eause10x,0,NULL
46,-1,single-stim,-1,45,64749,0.0-11.0-0.24,Symbol/4.png,NULL,NULL,NULL,Green,0,7,NULL,NULL,NULL,NULL,NULL,mltjsm2eause10x,0,NULL
47,-1,single-stim,-1,46,65352,0.0-11.0-0.25,Symbol/19.png,NULL,NULL,NULL,Green,0,8,NULL,NULL,NULL,NULL,NULL,mltjsm2eause10x,0,NULL
48,-1,single-stim,-1,47,65977,0.0-11.0-0.26,Symbol/19.png,NULL,NULL,NULL,Green,1,0,NULL,NULL,NULL,NULL,NULL,mltjsm2eause10x,0,NULL
49,-1,single-stim,-1,48,66600,0.0-11.0-0.27,Symbol/41.png,NULL,NULL,NULL,Red,0,1,NULL,NULL,NULL,NULL,NULL,mltjsm2eause10x,0,NULL
50,-1,single-stim,-1,49,67217,0.0-11.0-0.28,Symbol/46.png,NULL,NULL,NULL,Red,0,2,NULL,NULL,NULL,NULL,NULL,mltjsm2eause10x,0,NULL
51,-1,single-stim,-1,50,67835,0.0-11.0-0.29,Symbol/35.png,NULL,NULL,NULL,Red,0,3,NULL,NULL,NULL,NULL,NULL,mltjsm2eause10x,0,NULL
52,-1,single-stim,-1,51,68462,0.0-11.0-0.30,Symbol/5.png,NULL,NULL,NULL,Green,0,4,NULL,NULL,NULL,NULL,NULL,mltjsm2eause10x,0,NULL
53,-1,single-stim,-1,52,69076,0.0-11.0-0.31,Symbol/27.png,NULL,NULL,NULL,Red,0,5,NULL,NULL,NULL,NULL,NULL,mltjsm2eause10x,0,NULL
54,-1,single-stim,-1,53,69684,0.0-11.0-0.32,Symbol/42.png,NULL,NULL,NULL,Red,0,6,NULL,NULL,NULL,NULL,NULL,mltjsm2eause10x,0,NULL
55,-1,single-stim,-1,54,70315,0.0-11.0-0.33,Symbol/36.png,NULL,NULL,NULL,Red,0,7,NULL,NULL,NULL,NULL,NULL,mltjsm2eause10x,0,NULL
56,-1,single-stim,-1,55,70935,0.0-11.0-0.34,Symbol/2.png,NULL,NULL,NULL,Green,0,8,NULL,NULL,NULL,NULL,NULL,mltjsm2eause10x,0,NULL
57,-1,single-stim,-1,56,71558,0.0-11.0-0.35,Symbol/24.png,NULL,NULL,NULL,Green,0,9,NULL,NULL,NULL,NULL,NULL,mltjsm2eause10x,0,NULL
58,-1,single-stim,-1,57,72172,0.0-11.0-0.36,Symbol/36.png,NULL,NULL,NULL,Red,0,10,NULL,NULL,NULL,NULL,NULL,mltjsm2eause10x,0,NULL
59,-1,single-stim,-1,58,72797,0.0-11.0-0.37,Symbol/36.png,NULL,NULL,NULL,Red,0,11,NULL,NULL,NULL,NULL,NULL,mltjsm2eause10x,0,NULL
60,-1,single-stim,-1,59,73414,0.0-11.0-0.38,Symbol/23.png,NULL,NULL,NULL,Green,0,12,NULL,NULL,NULL,NULL,NULL,mltjsm2eause10x,0,NULL
61,-1,single-stim,-1,60,74016,0.0-11.0-0.39,Symbol/7.png,NULL,NULL,NULL,Green,0,13,NULL,NULL,NULL,NULL,NULL,mltjsm2eause10x,0,NULL
62,-1,single-stim,-1,61,74618,0.0-11.0-0.40,Symbol/41.png,NULL,NULL,NULL,Red,0,14,NULL,NULL,NULL,NULL,NULL,mltjsm2eause10x,0,NULL
63,-1,single-stim,-1,62,75237,0.0-11.0-0.41,Symbol/6.png,NULL,NULL,NULL,Green,0,15,NULL,NULL,NULL,NULL,NULL,mltjsm2eause10x,0,NULL
64,-1,single-stim,-1,63,75850,0.0-11.0-0.42,Symbol/46.png,NULL,NULL,NULL,Red,0,16,NULL,NULL,NULL,NULL,NULL,mltjsm2eause10x,0,NULL
65,-1,single-stim,-1,64,76477,0.0-11.0-0.43,Symbol/20.png,NULL,NULL,NULL,Green,0,17,NULL,NULL,NULL,NULL,NULL,mltjsm2eause10x,0,NULL
66,-1,single-stim,-1,65,77090,0.0-11.0-0.44,Symbol/4.png,NULL,NULL,NULL,Green,0,18,NULL,NULL,NULL,NULL,NULL,mltjsm2eause10x,0,NULL
67,-1,single-stim,-1,66,77704,0.0-11.0-0.45,Symbol/35.png,NULL,NULL,NULL,Red,0,19,NULL,NULL,NULL,NULL,NULL,mltjsm2eause10x,0,NULL
68,-1,single-stim,-1,67,78316,0.0-11.0-0.46,Symbol/19.png,NULL,NULL,NULL,Green,0,20,NULL,NULL,NULL,NULL,NULL,mltjsm2eause10x,0,NULL
69,-1,single-stim,-1,68,78925,0.0-11.0-0.47,Symbol/33.png,NULL,NULL,NULL,Red,0,21,NULL,NULL,NULL,NULL,NULL,mltjsm2eause10x,0,NULL
70,-1,single-stim,-1,69,79538,0.0-11.0-0.48,Symbol/37.png,NULL,NULL,NULL,Red,0,22,NULL,NULL,NULL,NULL,NULL,mltjsm2eause10x,0,NULL
71,-1,single-stim,-1,70,80151,0.0-11.0-0.49,Symbol/5.png,NULL,NULL,NULL,Green,0,23,NULL,NULL,NULL,NULL,NULL,mltjsm2eause10x,0,NULL
72,-1,single-stim,-1,71,80767,0.0-11.0-0.50,Symbol/7.png,NULL,NULL,NULL,Green,0,24,NULL,NULL,NULL,NULL,NULL,mltjsm2eause10x,0,NULL
73,-1,single-stim,-1,72,81384,0.0-11.0-0.51,Symbol/6.png,NULL,NULL,NULL,Green,0,25,NULL,NULL,NULL,NULL,NULL,mltjsm2eause10x,0,NULL
74,-1,single-stim,-1,73,82014,0.0-11.0-0.52,Symbol/32.png,NULL,NULL,NULL,Red,0,26,NULL,NULL,NULL,NULL,NULL,mltjsm2eause10x,0,NULL
75,-1,single-stim,-1,74,82631,0.0-11.0-0.53,Symbol/41.png,NULL,NULL,NULL,Red,0,27,NULL,NULL,NULL,NULL,NULL,mltjsm2eause10x,0,NULL
76,-1,single-stim,-1,75,83237,0.0-11.0-0.54,Symbol/46.png,NULL,NULL,NULL,Red,0,28,NULL,NULL,NULL,NULL,NULL,mltjsm2eause10x,0,NULL
77,-1,single-stim,-1,76,83850,0.0-11.0-0.55,Symbol/35.png,NULL,NULL,NULL,Red,0,29,NULL,NULL,NULL,NULL,NULL,mltjsm2eause10x,0,NULL
78,-1,single-stim,-1,77,84458,0.0-11.0-0.56,Symbol/20.png,NULL,NULL,NULL,Green,0,30,NULL,NULL,NULL,NULL,NULL,mltjsm2eause10x,0,NULL
79,-1,single-stim,-1,78,85068,0.0-11.0-0.57,Symbol/14.png,NULL,NULL,NULL,Green,0,31,NULL,NULL,NULL,NULL,NULL,mltjsm2eause10x,0,NULL
80,-1,single-stim,-1,79,85682,0.0-11.0-0.58,Symbol/40.png,NULL,NULL,NULL,Red,0,32,NULL,NULL,NULL,NULL,NULL,mltjsm2eause10x,0,NULL
81,-1,single-stim,-1,80,86314,0.0-11.0-0.59,Symbol/45.png,NULL,NULL,NULL,Red,0,33,NULL,NULL,NULL,NULL,NULL,mltjsm2eause10x,0,NULL
82,-1,single-stim,-1,81,86934,0.0-11.0-0.60,Symbol/15.png,NULL,NULL,NULL,Green,0,34,NULL,NULL,NULL,NULL,NULL,mltjsm2eause10x,0,NULL
83,-1,single-stim,-1,82,87555,0.0-11.0-0.61,Symbol/25.png,NULL,NULL,NULL,Red,0,35,NULL,NULL,NULL,NULL,NULL,mltjsm2eause10x,0,NULL
84,-1,single-stim,-1,83,88176,0.0-11.0-0.62,Symbol/27.png,NULL,NULL,NULL,Red,0,36,NULL,NULL,NULL,NULL,NULL,mltjsm2eause10x,0,NULL
85,-1,single-stim,-1,84,88785,0.0-11.0-0.63,Symbol/42.png,NULL,NULL,NULL,Red,0,37,NULL,NULL,NULL,NULL,NULL,mltjsm2eause10x,0,NULL
86,-1,single-stim,-1,85,89415,0.0-11.0-0.64,Symbol/10.png,NULL,NULL,NULL,Green,0,38,NULL,NULL,NULL,NULL,NULL,mltjsm2eause10x,0,NULL
87,-1,single-stim,-1,86,90031,0.0-11.0-0.65,Symbol/2.png,NULL,NULL,NULL,Green,0,39,NULL,NULL,NULL,NULL,NULL,mltjsm2eause10x,0,NULL
88,-1,single-stim,-1,87,90646,0.0-11.0-0.66,Symbol/42.png,NULL,NULL,NULL,Red,0,40,NULL,NULL,NULL,NULL,NULL,mltjsm2eause10x,0,NULL
89,-1,single-stim,-1,88,91253,0.0-11.0-0.67,Symbol/24.png,NULL,NULL,NULL,Green,0,41,NULL,NULL,NULL,NULL,NULL,mltjsm2eause10x,0,NULL
90,-1,single-stim,-1,89,91867,0.0-11.0-0.68,Symbol/23.png,NULL,NULL,NULL,Green,0,42,NULL,NULL,NULL,NULL,NULL,mltjsm2eause10x,0,NULL
91,-1,single-stim,-1,90,92490,0.0-11.0-0.69,Symbol/36.png,NULL,NULL,NULL,Red,0,43,NULL,NULL,NULL,NULL,NULL,mltjsm2eause10x,0,NULL
92,-1,single-stim,-1,91,93115,0.0-11.0-0.70,Symbol/7.png,NULL,NULL,NULL,Green,0,44,NULL,NULL,NULL,NULL,NULL,mltjsm2eause10x,0,NULL
93,-1,single-stim,-1,92,93719,0.0-11.0-0.71,Symbol/40.png,NULL,NULL,NULL,Red,0,45,NULL,NULL,NULL,NULL,NULL,mltjsm2eause10x,0,NULL
94,-1,single-stim,-1,93,94334,0.0-11.0-0.72,Symbol/45.png,NULL,NULL,NULL,Red,0,46,NULL,NULL,NULL,NULL,NULL,mltjsm2eause10x,0,NULL
95,-1,single-stim,-1,94,94966,0.0-11.0-0.73,Symbol/6.png,NULL,NULL,NULL,Green,0,47,NULL,NULL,NULL,NULL,NULL,mltjsm2eause10x,0,NULL
96,-1,single-stim,-1,95,95569,0.0-11.0-0.74,Symbol/20.png,NULL,NULL,NULL,Green,0,48,NULL,NULL,NULL,NULL,NULL,mltjsm2eause10x,0,NULL
97,-1,single-stim,-1,96,96194,0.0-11.0-0.75,Symbol/2.png,NULL,NULL,NULL,Green,0,49,NULL,NULL,NULL,NULL,NULL,mltjsm2eause10x,0,NULL
98,-1,single-stim,-1,97,96806,0.0-11.0-0.76,Symbol/25.png,NULL,NULL,NULL,Red,0,50,NULL,NULL,NULL,NULL,NULL,mltjsm2eause10x,0,NULL
99,-1,single-stim,-1,98,97431,0.0-11.0-0.77,Symbol/24.png,NULL,NULL,NULL,Green,0,51,NULL,NULL,NULL,NULL,NULL,mltjsm2eause10x,0,NULL
100,-1,single-stim,-1,99,98051,0.0-11.0-0.78,Symbol/41.png,NULL,NULL,NULL,Red,0,52,NULL,NULL,NULL,NULL,NULL,mltjsm2eause10x,0,NULL
101,-1,single-stim,-1,100,98661,0.0-11.0-0.79,Symbol/46.png,NULL,NULL,NULL,Red,0,53,NULL,NULL,NULL,NULL,NULL,mltjsm2eause10x,0,NULL
102,-1,single-stim,-1,101,99266,0.0-11.0-0.80,Symbol/35.png,NULL,NULL,NULL,Red,0,54,NULL,NULL,NULL,NULL,NULL,mltjsm2eause10x,0,NULL
103,-1,single-stim,-1,102,99882,0.0-11.0-0.81,Symbol/23.png,NULL,NULL,NULL,Green,0,55,NULL,NULL,NULL,NULL,NULL,mltjsm2eause10x,0,NULL
104,-1,single-stim,-1,103,100492,0.0-11.0-0.82,Symbol/40.png,NULL,NULL,NULL,Red,0,56,NULL,NULL,NULL,NULL,NULL,mltjsm2eause10x,0,NULL
105,-1,single-stim,-1,104,101117,0.0-11.0-0.83,Symbol/4.png,NULL,NULL,NULL,Green,0,57,NULL,NULL,NULL,NULL,NULL,mltjsm2eause10x,0,NULL
106,-1,single-stim,-1,105,101721,0.0-11.0-0.84,Symbol/40.png,NULL,NULL,NULL,Red,0,58,NULL,NULL,NULL,NULL,NULL,mltjsm2eause10x,0,NULL
107,-1,single-stim,-1,106,102334,0.0-11.0-0.85,Symbol/19.png,NULL,NULL,NULL,Green,0,59,NULL,NULL,NULL,NULL,NULL,mltjsm2eause10x,0,NULL
108,-1,single-stim,-1,107,102964,0.0-11.0-0.86,Symbol/5.png,NULL,NULL,NULL,Green,0,60,NULL,NULL,NULL,NULL,NULL,mltjsm2eause10x,0,NULL
109,-1,single-stim,-1,108,103570,0.0-11.0-0.87,Symbol/45.png,NULL,NULL,NULL,Red,0,61,NULL,NULL,NULL,NULL,NULL,mltjsm2eause10x,0,NULL
110,-1,single-stim,-1,109,104183,0.0-11.0-0.88,Symbol/25.png,NULL,NULL,NULL,Red,0,62,NULL,NULL,NULL,NULL,NULL,mltjsm2eause10x,0,NULL
111,-1,single-stim,-1,110,104806,0.0-11.0-0.89,Symbol/14.png,NULL,NULL,NULL,Green,0,63,NULL,NULL,NULL,NULL,NULL,mltjsm2eause10x,0,NULL
112,-1,single-stim,-1,111,105429,0.0-11.0-0.90,Symbol/15.png,NULL,NULL,NULL,Green,0,64,NULL,NULL,NULL,NULL,NULL,mltjsm2eause10x,0,NULL
113,-1,single-stim,-1,112,106032,0.0-11.0-0.91,Symbol/10.png,NULL,NULL,NULL,Green,0,65,NULL,NULL,NULL,NULL,NULL,mltjsm2eause10x,0,NULL
114,-1,single-stim,-1,113,106659,0.0-11.0-0.92,Symbol/7.png,NULL,NULL,NULL,Green,0,66,NULL,NULL,NULL,NULL,NULL,mltjsm2eause10x,0,NULL
115,-1,single-stim,-1,114,107280,0.0-11.0-0.93,Symbol/6.png,NULL,NULL,NULL,Green,0,67,NULL,NULL,NULL,NULL,NULL,mltjsm2eause10x,0,NULL
116,-1,single-stim,-1,115,107899,0.0-11.0-0.94,Symbol/27.png,NULL,NULL,NULL,Red,0,68,NULL,NULL,NULL,NULL,NULL,mltjsm2eause10x,0,NULL
117,-1,single-stim,-1,116,108509,0.0-11.0-0.95,Symbol/42.png,NULL,NULL,NULL,Red,0,69,NULL,NULL,NULL,NULL,NULL,mltjsm2eause10x,0,NULL
118,-1,single-stim,-1,117,109118,0.0-11.0-0.96,Symbol/36.png,NULL,NULL,NULL,Red,0,70,NULL,NULL,NULL,NULL,NULL,mltjsm2eause10x,0,NULL
119,-1,single-stim,-1,118,109727,0.0-11.0-0.97,Symbol/33.png,NULL,NULL,NULL,Red,0,71,NULL,NULL,NULL,NULL,NULL,mltjsm2eause10x,0,NULL
120,-1,single-stim,-1,119,110341,0.0-11.0-0.98,Symbol/20.png,NULL,NULL,NULL,Green,0,72,NULL,NULL,NULL,NULL,NULL,mltjsm2eause10x,0,NULL
121,-1,single-stim,-1,120,110951,0.0-11.0-0.99,Symbol/14.png,NULL,NULL,NULL,Green,0,73,NULL,NULL,NULL,NULL,NULL,mltjsm2eause10x,0,NULL
122,-1,single-stim,-1,121,111569,0.0-11.0-0.100,Symbol/37.png,NULL,NULL,NULL,Red,0,74,NULL,NULL,NULL,NULL,NULL,mltjsm2eause10x,0,NULL
123,-1,single-stim,-1,122,112184,0.0-11.0-0.101,Symbol/15.png,NULL,NULL,NULL,Green,0,75,NULL,NULL,NULL,NULL,NULL,mltjsm2eause10x,0,NULL
124,-1,single-stim,-1,123,112800,0.0-11.0-0.102,Symbol/10.png,NULL,NULL,NULL,Green,0,76,NULL,NULL,NULL,NULL,NULL,mltjsm2eause10x,0,NULL
125,-1,single-stim,-1,124,113414,0.0-11.0-0.103,Symbol/32.png,NULL,NULL,NULL,Red,0,77,NULL,NULL,NULL,NULL,NULL,mltjsm2eause10x,0,NULL
126,-1,single-stim,-1,125,114018,0.0-11.0-0.104,Symbol/41.png,NULL,NULL,NULL,Red,0,78,NULL,NULL,NULL,NULL,NULL,mltjsm2eause10x,0,NULL
127,-1,single-stim,-1,126,114627,0.0-11.0-0.105,Symbol/46.png,NULL,NULL,NULL,Red,0,79,NULL,NULL,NULL,NULL,NULL,mltjsm2eause10x,0,NULL
128,-1,single-stim,-1,127,115236,0.0-11.0-0.106,Symbol/2.png,NULL,NULL,NULL,Green,0,80,NULL,NULL,NULL,NULL,NULL,mltjsm2eause10x,0,NULL
129,-1,single-stim,-1,128,115853,0.0-11.0-0.107,Symbol/2.png,NULL,NULL,NULL,Green,1,0,NULL,NULL,NULL,NULL,NULL,mltjsm2eause10x,0,NULL
130,-1,single-stim,-1,129,116479,0.0-11.0-0.108,Symbol/24.png,NULL,NULL,NULL,Green,0,1,NULL,NULL,NULL,NULL,NULL,mltjsm2eause10x,0,NULL
131,-1,single-stim,-1,130,117088,0.0-11.0-0.109,Symbol/35.png,NULL,NULL,NULL,Red,0,2,NULL,NULL,NULL,NULL,NULL,mltjsm2eause10x,0,NULL
132,-1,single-stim,-1,131,117707,0.0-11.0-0.110,Symbol/23.png,NULL,NULL,NULL,Green,0,3,NULL,NULL,NULL,NULL,NULL,mltjsm2eause10x,0,NULL
133,-1,single-stim,-1,132,118317,0.0-11.0-0.111,Symbol/7.png,NULL,NULL,NULL,Green,0,4,NULL,NULL,NULL,NULL,NULL,mltjsm2eause10x,0,NULL
134,-1,single-stim,-1,133,118932,0.0-11.0-0.112,Symbol/40.png,NULL,NULL,NULL,Red,0,5,NULL,NULL,NULL,NULL,NULL,mltjsm2eause10x,0,NULL
135,-1,single-stim,-1,134,119542,0.0-11.0-0.113,Symbol/45.png,NULL,NULL,NULL,Red,0,6,NULL,NULL,NULL,NULL,NULL,mltjsm2eause10x,0,NULL
136,-1,single-stim,-1,135,120152,0.0-11.0-0.114,Symbol/45.png,NULL,NULL,NULL,Red,0,7,NULL,NULL,NULL,NULL,NULL,mltjsm2eause10x,0,NULL
137,-1,single-stim,-1,136,120768,0.0-11.0-0.115,Symbol/6.png,NULL,NULL,NULL,Green,0,8,NULL,NULL,NULL,NULL,NULL,mltjsm2eause10x,0,NULL
138,-1,single-stim,-1,137,121384,0.0-11.0-0.116,Symbol/20.png,NULL,NULL,NULL,Green,0,9,NULL,NULL,NULL,NULL,NULL,mltjsm2eause10x,0,NULL
139,-1,single-stim,-1,138,121989,0.0-11.0-0.117,Symbol/4.png,NULL,NULL,NULL,Green,0,10,NULL,NULL,NULL,NULL,NULL,mltjsm2eause10x,0,NULL
140,-1,single-stim,-1,139,122600,0.0-11.0-0.118,Symbol/19.png,NULL,NULL,NULL,Green,0,11,NULL,NULL,NULL,NULL,NULL,mltjsm2eause10x,0,NULL
141,-1,single-stim,-1,140,123217,0.0-11.0-0.119,Symbol/5.png,NULL,NULL,NULL,Green,0,12,NULL,NULL,NULL,NULL,NULL,mltjsm2eause10x,0,NULL
142,-1,single-stim,-1,141,123831,0.0-11.0-0.120,Symbol/25.png,NULL,NULL,NULL,Red,0,13,NULL,NULL,NULL,NULL,NULL,mltjsm2eause10x,0,NULL
143,-1,single-stim,-1,142,124445,0.0-11.0-0.121,Symbol/33.png,NULL,NULL,NULL,Red,0,14,NULL,NULL,NULL,NULL,NULL,mltjsm2eause10x,0,NULL
144,-1,single-stim,-1,143,125067,0.0-11.0-0.122,Symbol/14.png,NULL,NULL,NULL,Green,0,15,NULL,NULL,NULL,NULL,NULL,mltjsm2eause10x,0,NULL
145,-1,single-stim,-1,144,125682,0.0-11.0-0.123,Symbol/37.png,NULL,NULL,NULL,Red,0,16,NULL,NULL,NULL,NULL,NULL,mltjsm2eause10x,0,NULL
146,-1,single-stim,-1,145,126285,0.0-11.0-0.124,Symbol/32.png,NULL,NULL,NULL,Red,0,17,NULL,NULL,NULL,NULL,NULL,mltjsm2eause10x,0,NULL
147,-1,single-stim,-1,146,126914,0.0-11.0-0.125,Symbol/41.png,NULL,NULL,NULL,Red,0,18,NULL,NULL,NULL,NULL,NULL,mltjsm2eause10x,0,NULL
148,-1,single-stim,-1,147,127523,0.0-11.0-0.126,Symbol/46.png,NULL,NULL,NULL,Red,0,19,NULL,NULL,NULL,NULL,NULL,mltjsm2eause10x,0,NULL
149,-1,single-stim,-1,148,128134,0.0-11.0-0.127,Symbol/46.png,NULL,NULL,NULL,Red,0,20,NULL,NULL,NULL,NULL,NULL,mltjsm2eause10x,0,NULL
150,-1,single-stim,-1,149,128736,0.0-11.0-0.128,Symbol/35.png,NULL,NULL,NULL,Red,0,21,NULL,NULL,NULL,NULL,NULL,mltjsm2eause10x,0,NULL
151,-1,single-stim,-1,150,129351,0.0-11.0-0.129,Symbol/15.png,NULL,NULL,NULL,Green,0,22,NULL,NULL,NULL,NULL,NULL,mltjsm2eause10x,0,NULL
152,-1,single-stim,-1,151,129967,0.0-11.0-0.130,Symbol/33.png,NULL,NULL,NULL,Red,0,23,NULL,NULL,NULL,NULL,NULL,mltjsm2eause10x,0,NULL
153,-1,single-stim,-1,152,130584,0.0-11.0-0.131,Symbol/10.png,NULL,NULL,NULL,Green,0,24,NULL,NULL,NULL,NULL,NULL,mltjsm2eause10x,0,NULL
154,-1,single-stim,-1,153,131216,0.0-11.0-0.132,Symbol/37.png,NULL,NULL,NULL,Red,0,25,NULL,NULL,NULL,NULL,NULL,mltjsm2eause10x,0,NULL
155,-1,single-stim,-1,154,131836,0.0-11.0-0.133,Symbol/7.png,NULL,NULL,NULL,Green,0,26,NULL,NULL,NULL,NULL,NULL,mltjsm2eause10x,0,NULL
156,-1,single-stim,-1,155,132461,0.0-11.0-0.134,Symbol/6.png,NULL,NULL,NULL,Green,0,27,NULL,NULL,NULL,NULL,NULL,mltjsm2eause10x,0,NULL
157,-1,single-stim,-1,156,133069,0.0-11.0-0.135,Symbol/20.png,NULL,NULL,NULL,Green,0,28,NULL,NULL,NULL,NULL,NULL,mltjsm2eause10x,0,NULL
158,-1,single-stim,-1,157,133678,0.0-11.0-0.136,Symbol/2.png,NULL,NULL,NULL,Green,0,29,NULL,NULL,NULL,NULL,NULL,mltjsm2eause10x,0,NULL
159,-1,single-stim,-1,158,134286,0.0-11.0-0.137,Symbol/32.png,NULL,NULL,NULL,Red,0,30,NULL,NULL,NULL,NULL,NULL,mltjsm2eause10x,0,NULL
160,-1,single-stim,-1,159,134901,0.0-11.0-0.138,Symbol/32.png,NULL,NULL,NULL,Red,0,31,NULL,NULL,NULL,NULL,NULL,mltjsm2eause10x,0,NULL
161,-1,single-stim,-1,160,135532,0.0-11.0-0.139,Symbol/27.png,NULL,NULL,NULL,Red,0,32,NULL,NULL,NULL,NULL,NULL,mltjsm2eause10x,0,NULL
162,-1,single-stim,-1,161,136134,0.0-11.0-0.140,Symbol/24.png,NULL,NULL,NULL,Green,0,33,NULL,NULL,NULL,NULL,NULL,mltjsm2eause10x,0,NULL
163,-1,single-stim,-1,162,136751,0.0-11.0-0.141,Symbol/23.png,NULL,NULL,NULL,Green,0,34,NULL,NULL,NULL,NULL,NULL,mltjsm2eause10x,0,NULL
164,-1,single-stim,-1,163,137378,0.0-11.0-0.142,Symbol/4.png,NULL,NULL,NULL,Green,0,35,NULL,NULL,NULL,NULL,NULL,mltjsm2eause10x,0,NULL
165,-1,single-stim,-1,164,137998,0.0-11.0-0.143,Symbol/42.png,NULL,NULL,NULL,Red,0,36,NULL,NULL,NULL,NULL,NULL,mltjsm2eause10x,0,NULL
166,-1,single-stim,-1,165,138614,0.0-11.0-0.144,Symbol/36.png,NULL,NULL,NULL,Red,0,37,NULL,NULL,NULL,NULL,NULL,mltjsm2eause10x,0,NULL
167,-1,single-stim,-1,166,139231,0.0-11.0-0.145,Symbol/33.png,NULL,NULL,NULL,Red,0,38,NULL,NULL,NULL,NULL,NULL,mltjsm2eause10x,0,NULL
168,-1,single-stim,-1,167,139849,0.0-11.0-0.146,Symbol/19.png,NULL,NULL,NULL,Green,0,39,NULL,NULL,NULL,NULL,NULL,mltjsm2eause10x,0,NULL
169,-1,single-stim,-1,168,140461,0.0-11.0-0.147,Symbol/37.png,NULL,NULL,NULL,Red,0,40,NULL,NULL,NULL,NULL,NULL,mltjsm2eause10x,0,NULL
170,-1,single-stim,-1,169,141070,0.0-11.0-0.148,Symbol/32.png,NULL,NULL,NULL,Red,0,41,NULL,NULL,NULL,NULL,NULL,mltjsm2eause10x,0,NULL
171,-1,single-stim,-1,170,141692,0.0-11.0-0.149,Symbol/5.png,NULL,NULL,NULL,Green,0,42,NULL,NULL,NULL,NULL,NULL,mltjsm2eause10x,0,NULL
172,-1,single-stim,-1,171,142300,0.0-11.0-0.150,Symbol/7.png,NULL,NULL,NULL,Green,0,43,NULL,NULL,NULL,NULL,NULL,mltjsm2eause10x,0,NULL
173,-1,single-stim,-1,172,142903,0.0-11.0-0.151,Symbol/6.png,NULL,NULL,NULL,Green,0,44,NULL,NULL,NULL,NULL,NULL,mltjsm2eause10x,0,NULL
174,-1,single-stim,-1,173,143524,0.0-11.0-0.152,Symbol/20.png,NULL,NULL,NULL,Green,0,45,NULL,NULL,NULL,NULL,NULL,mltjsm2eause10x,0,NULL
175,-1,single-stim,-1,174,144130,0.0-11.0-0.153,Symbol/2.png,NULL,NULL,NULL,Green,0,46,NULL,NULL,NULL,NULL,NULL,mltjsm2eause10x,0,NULL
176,-1,single-stim,-1,175,144735,0.0-11.0-0.154,Symbol/24.png,NULL,NULL,NULL,Green,0,47,NULL,NULL,NULL,NULL,NULL,mltjsm2eause10x,0,NULL
177,-1,single-stim,-1,176,145337,0.0-11.0-0.155,Symbol/40.png,NULL,NULL,NULL,Red,0,48,NULL,NULL,NULL,NULL,NULL,mltjsm2eause10x,0,NULL
178,-1,single-stim,-1,177,145950,0.0-11.0-0.156,Symbol/45.png,NULL,NULL,NULL,Red,0,49,NULL,NULL,NULL,NULL,NULL,mltjsm2eause10x,0,NULL
179,-1,single-stim,-1,178,146561,0.0-11.0-0.157,Symbol/25.png,NULL,NULL,NULL,Red,0,50,NULL,NULL,NULL,NULL,NULL,mltjsm2eause10x,0,NULL
180,-1,single-stim,-1,179,147169,0.0-11.0-0.158,Symbol/33.png,NULL,NULL,NULL,Red,0,51,NULL,NULL,NULL,NULL,NULL,mltjsm2eause10x,0,NULL
181,-1,single-stim,-1,180,147785,0.0-11.0-0.159,Symbol/23.png,NULL,NULL,NULL,Green,0,52,NULL,NULL,NULL,NULL,NULL,mltjsm2eause10x,0,NULL
182,-1,single-stim,-1,181,148408,0.0-11.0-0.160,Symbol/37.png,NULL,NULL,NULL,Red,0,53,NULL,NULL,NULL,NULL,NULL,mltjsm2eause10x,0,NULL
183,-1,single-stim,-1,182,149018,0.0-11.0-0.161,Symbol/14.png,NULL,NULL,NULL,Green,0,54,NULL,NULL,NULL,NULL,NULL,mltjsm2eause10x,0,NULL
184,-1,single-stim,-1,183,149646,0.0-11.0-0.162,Symbol/15.png,NULL,NULL,NULL,Green,0,55,NULL,NULL,NULL,NULL,NULL,mltjsm2eause10x,0,NULL
185,-1,single-stim,-1,184,150266,0.0-11.0-0.163,Symbol/32.png,NULL,NULL,NULL,Red,0,56,NULL,NULL,NULL,NULL,NULL,mltjsm2eause10x,0,NULL
186,-1,single-stim,-1,185,150885,0.0-11.0-0.164,Symbol/10.png,NULL,NULL,NULL,Green,0,57,NULL,NULL,NULL,NULL,NULL,mltjsm2eause10x,0,NULL
187,-1,single-stim,-1,186,151507,0.0-11.0-0.165,Symbol/4.png,NULL,NULL,NULL,Green,0,58,NULL,NULL,NULL,NULL,NULL,mltjsm2eause10x,0,NULL
188,-1,single-stim,-1,187,152117,0.0-11.0-0.166,Symbol/19.png,NULL,NULL,NULL,Green,0,59,NULL,NULL,NULL,NULL,NULL,mltjsm2eause10x,0,NULL
189,-1,single-stim,-1,188,152734,0.0-11.0-0.167,Symbol/32.png,NULL,NULL,NULL,Red,0,60,NULL,NULL,NULL,NULL,NULL,mltjsm2eause10x,0,NULL
190,-1,single-stim,-1,189,153350,0.0-11.0-0.168,Symbol/41.png,NULL,NULL,NULL,Red,0,61,NULL,NULL,NULL,NULL,NULL,mltjsm2eause10x,0,NULL
191,-1,single-stim,-1,190,153962,0.0-11.0-0.169,Symbol/5.png,NULL,NULL,NULL,Green,0,62,NULL,NULL,NULL,NULL,NULL,mltjsm2eause10x,0,NULL
192,-1,single-stim,-1,191,154578,0.0-11.0-0.170,Symbol/46.png,NULL,NULL,NULL,Red,0,63,NULL,NULL,NULL,NULL,NULL,mltjsm2eause10x,0,NULL
193,-1,single-stim,-1,192,155200,0.0-11.0-0.171,Symbol/35.png,NULL,NULL,NULL,Red,0,64,NULL,NULL,NULL,NULL,NULL,mltjsm2eause10x,0,NULL
194,-1,single-stim,-1,193,155816,0.0-11.0-0.172,Symbol/33.png,NULL,NULL,NULL,Red,0,65,NULL,NULL,NULL,NULL,NULL,mltjsm2eause10x,0,NULL
195,-1,single-stim,-1,194,156439,0.0-11.0-0.173,Symbol/14.png,NULL,NULL,NULL,Green,0,66,NULL,NULL,NULL,NULL,NULL,mltjsm2eause10x,0,NULL
196,-1,single-stim,-1,195,157068,0.0-11.0-0.174,Symbol/15.png,NULL,NULL,NULL,Green,0,67,NULL,NULL,NULL,NULL,NULL,mltjsm2eause10x,0,NULL
197,-1,single-stim,-1,196,157691,0.0-11.0-0.175,Symbol/37.png,NULL,NULL,NULL,Red,0,68,NULL,NULL,NULL,NULL,NULL,mltjsm2eause10x,0,NULL
198,-1,single-stim,-1,197,158300,0.0-11.0-0.176,Symbol/10.png,NULL,NULL,NULL,Green,0,69,NULL,NULL,NULL,NULL,NULL,mltjsm2eause10x,0,NULL
199,-1,single-stim,-1,198,158917,0.0-11.0-0.177,Symbol/2.png,NULL,NULL,NULL,Green,0,70,NULL,NULL,NULL,NULL,NULL,mltjsm2eause10x,0,NULL
200,-1,single-stim,-1,199,159537,0.0-11.0-0.178,Symbol/32.png,NULL,NULL,NULL,Red,0,71,NULL,NULL,NULL,NULL,NULL,mltjsm2eause10x,0,NULL
201,-1,single-stim,-1,200,160153,0.0-11.0-0.179,Symbol/24.png,NULL,NULL,NULL,Green,0,72,NULL,NULL,NULL,NULL,NULL,mltjsm2eause10x,0,NULL
202,-1,single-stim,-1,201,160766,0.0-11.0-0.180,Symbol/40.png,NULL,NULL,NULL,Red,0,73,NULL,NULL,NULL,NULL,NULL,mltjsm2eause10x,0,NULL
203,-1,single-stim,-1,202,161383,0.0-11.0-0.181,Symbol/45.png,NULL,NULL,NULL,Red,0,74,NULL,NULL,NULL,NULL,NULL,mltjsm2eause10x,0,NULL
204,-1,single-stim,-1,203,161987,0.0-11.0-0.182,Symbol/25.png,NULL,NULL,NULL,Red,0,75,NULL,NULL,NULL,NULL,NULL,mltjsm2eause10x,0,NULL
205,-1,single-stim,-1,204,162597,0.0-11.0-0.183,Symbol/23.png,NULL,NULL,NULL,Green,0,76,NULL,NULL,NULL,NULL,NULL,mltjsm2eause10x,0,NULL
206,-1,single-stim,-1,205,163216,0.0-11.0-0.184,Symbol/23.png,NULL,NULL,NULL,Green,1,0,NULL,NULL,NULL,NULL,NULL,mltjsm2eause10x,0,NULL
207,32,single-stim,57,206,163835,0.0-11.0-0.185,Symbol/25.png,NULL,NULL,NULL,Red,0,1,NULL,NULL,NULL,NULL,NULL,mltjsm2eause10x,0,NULL
208,-1,single-stim,-1,207,164458,0.0-11.0-0.186,Symbol/41.png,NULL,NULL,NULL,Red,0,2,NULL,NULL,NULL,NULL,NULL,mltjsm2eause10x,0,NULL
209,-1,single-stim,-1,208,165067,0.0-11.0-0.187,Symbol/14.png,NULL,NULL,NULL,Green,0,3,NULL,NULL,NULL,NULL,NULL,mltjsm2eause10x,0,NULL
210,-1,single-stim,-1,209,165676,0.0-11.0-0.188,Symbol/46.png,NULL,NULL,NULL,Red,0,4,NULL,NULL,NULL,NULL,NULL,mltjsm2eause10x,0,NULL
211,-1,single-stim,-1,210,166284,0.0-11.0-0.189,Symbol/15.png,NULL,NULL,NULL,Green,0,5,NULL,NULL,NULL,NULL,NULL,mltjsm2eause10x,0,NULL
212,-1,single-stim,-1,211,166899,0.0-11.0-0.190,Symbol/10.png,NULL,NULL,NULL,Green,0,6,NULL,NULL,NULL,NULL,NULL,mltjsm2eause10x,0,NULL
213,-1,single-stim,-1,212,167522,0.0-11.0-0.191,Symbol/35.png,NULL,NULL,NULL,Red,0,7,NULL,NULL,NULL,NULL,NULL,mltjsm2eause10x,0,NULL
214,-1,single-stim,-1,213,168133,0.0-11.0-0.192,Symbol/7.png,NULL,NULL,NULL,Green,0,8,NULL,NULL,NULL,NULL,NULL,mltjsm2eause10x,0,NULL
215,-1,single-stim,-1,214,168747,0.0-11.0-0.193,Symbol/6.png,NULL,NULL,NULL,Green,0,9,NULL,NULL,NULL,NULL,NULL,mltjsm2eause10x,0,NULL
216,-1,single-stim,-1,215,169349,0.0-11.0-0.194,Symbol/20.png,NULL,NULL,NULL,Green,0,10,NULL,NULL,NULL,NULL,NULL,mltjsm2eause10x,0,NULL
217,-1,single-stim,-1,216,169966,0.0-11.0-0.195,Symbol/14.png,NULL,NULL,NULL,Green,0,11,NULL,NULL,NULL,NULL,NULL,mltjsm2eause10x,0,NULL
218,-1,single-stim,-1,217,170570,0.0-11.0-0.196,Symbol/27.png,NULL,NULL,NULL,Red,0,12,NULL,NULL,NULL,NULL,NULL,mltjsm2eause10x,0,NULL
219,-1,single-stim,-1,218,171183,0.0-11.0-0.197,Symbol/15.png,NULL,NULL,NULL,Green,0,13,NULL,NULL,NULL,NULL,NULL,mltjsm2eause10x,0,NULL
220,-1,single-stim,-1,219,171803,0.0-11.0-0.198,Symbol/42.png,NULL,NULL,NULL,Red,0,14,NULL,NULL,NULL,NULL,NULL,mltjsm2eause10x,0,NULL
221,-1,single-stim,-1,220,172427,0.0-11.0-0.199,Symbol/36.png,NULL,NULL,NULL,Red,0,15,NULL,NULL,NULL,NULL,NULL,mltjsm2eause10x,0,NULL
222,-1,single-stim,-1,221,173035,0.0-11.0-0.200,Symbol/33.png,NULL,NULL,NULL,Red,0,16,NULL,NULL,NULL,NULL,NULL,mltjsm2eause10x,0,NULL
223,-1,single-stim,-1,222,173663,0.0-11.0-0.201,Symbol/37.png,NULL,NULL,NULL,Red,0,17,NULL,NULL,NULL,NULL,NULL,mltjsm2eause10x,0,NULL
224,-1,single-stim,-1,223,174267,0.0-11.0-0.202,Symbol/10.png,NULL,NULL,NULL,Green,0,18,NULL,NULL,NULL,NULL,NULL,mltjsm2eause10x,0,NULL
225,-1,single-stim,-1,224,174882,0.0-11.0-0.203,Symbol/2.png,NULL,NULL,NULL,Green,0,19,NULL,NULL,NULL,NULL,NULL,mltjsm2eause10x,0,NULL
226,-1,single-stim,-1,225,175505,0.0-11.0-0.204,Symbol/32.png,NULL,NULL,NULL,Red,0,20,NULL,NULL,NULL,NULL,NULL,mltjsm2eause10x,0,NULL
227,-1,single-stim,-1,226,176129,0.0-11.0-0.205,Symbol/40.png,NULL,NULL,NULL,Red,0,21,NULL,NULL,NULL,NULL,NULL,mltjsm2eause10x,0,NULL
228,-1,single-stim,-1,227,176734,0.0-11.0-0.206,Symbol/45.png,NULL,NULL,NULL,Red,0,22,NULL,NULL,NULL,NULL,NULL,mltjsm2eause10x,0,NULL
229,-1,single-stim,-1,228,177343,0.0-11.0-0.207,Symbol/24.png,NULL,NULL,NULL,Green,0,23,NULL,NULL,NULL,NULL,NULL,mltjsm2eause10x,0,NULL
230,-1,single-stim,-1,229,177950,0.0-11.0-0.208,Symbol/25.png,NULL,NULL,NULL,Red,0,24,NULL,NULL,NULL,NULL,NULL,mltjsm2eause10x,0,NULL
231,-1,single-stim,-1,230,178553,0.0-11.0-0.209,Symbol/33.png,NULL,NULL,NULL,Red,0,25,NULL,NULL,NULL,NULL,NULL,mltjsm2eause10x,0,NULL
232,-1,single-stim,-1,231,179170,0.0-11.0-0.210,Symbol/37.png,NULL,NULL,NULL,Red,0,26,NULL,NULL,NULL,NULL,NULL,mltjsm2eause10x,0,NULL
233,-1,single-stim,-1,232,179785,0.0-11.0-0.211,Symbol/32.png,NULL,NULL,NULL,Red,0,27,NULL,NULL,NULL,NULL,NULL,mltjsm2eause10x,0,NULL
234,-1,single-stim,-1,233,180398,0.0-11.0-0.212,Symbol/27.png,NULL,NULL,NULL,Red,0,28,NULL,NULL,NULL,NULL,NULL,mltjsm2eause10x,0,NULL
235,-1,single-stim,-1,234,181001,0.0-11.0-0.213,Symbol/42.png,NULL,NULL,NULL,Red,0,29,NULL,NULL,NULL,NULL,NULL,mltjsm2eause10x,0,NULL
236,-1,single-stim,-1,235,181615,0.0-11.0-0.214,Symbol/24.png,NULL,NULL,NULL,Green,1,0,NULL,NULL,NULL,NULL,NULL,mltjsm2eause10x,0,NULL
237,-1,single-stim,-1,236,182234,0.0-11.0-0.215,Symbol/36.png,NULL,NULL,NULL,Red,0,1,NULL,NULL,NULL,NULL,NULL,mltjsm2eause10x,0,NULL
238,-1,single-stim,-1,237,182850,0.0-11.0-0.216,Symbol/23.png,NULL,NULL,NULL,Green,0,2,NULL,NULL,NULL,NULL,NULL,mltjsm2eause10x,0,NULL
239,-1,single-stim,-1,238,183459,0.0-11.0-0.217,Symbol/40.png,NULL,NULL,NULL,Red,0,3,NULL,NULL,NULL,NULL,NULL,mltjsm2eause10x,0,NULL
240,-1,single-stim,-1,239,184066,0.0-11.0-0.218,Symbol/45.png,NULL,NULL,NULL,Red,0,4,NULL,NULL,NULL,NULL,NULL,mltjsm2eause10x,0,NULL
241,-1,single-stim,-1,240,184676,0.0-11.0-0.219,Symbol/7.png,NULL,NULL,NULL,Green,0,5,NULL,NULL,NULL,NULL,NULL,mltjsm2eause10x,0,NULL
242,-1,single-stim,-1,241,185284,0.0-11.0-0.220,Symbol/7.png,NULL,NULL,NULL,Green,1,0,NULL,NULL,NULL,NULL,NULL,mltjsm2eause10x,0,NULL
243,32,single-stim,88,242,185898,0.0-11.0-0.221,Symbol/25.png,NULL,NULL,NULL,Red,0,1,NULL,NULL,NULL,NULL,NULL,mltjsm2eause10x,0,NULL
244,-1,single-stim,-1,243,186501,0.0-11.0-0.222,Symbol/27.png,NULL,NULL,NULL,Red,0,2,NULL,NULL,NULL,NULL,NULL,mltjsm2eause10x,0,NULL
245,-1,single-stim,-1,244,187106,0.0-11.0-0.223,Symbol/6.png,NULL,NULL,NULL,Green,0,3,NULL,NULL,NULL,NULL,NULL,mltjsm2eause10x,0,NULL
246,-1,single-stim,-1,245,187707,0.0-11.0-0.224,Symbol/42.png,NULL,NULL,NULL,Red,0,4,NULL,NULL,NULL,NULL,NULL,mltjsm2eause10x,0,NULL
247,-1,single-stim,-1,246,188318,0.0-11.0-0.225,Symbol/36.png,NULL,NULL,NULL,Red,0,5,NULL,NULL,NULL,NULL,NULL,mltjsm2eause10x,0,NULL
248,-1,single-stim,-1,247,188932,0.0-11.0-0.226,Symbol/20.png,NULL,NULL,NULL,Green,0,6,NULL,NULL,NULL,NULL,NULL,mltjsm2eause10x,0,NULL
249,-1,single-stim,-1,248,189549,0.0-11.0-0.227,Symbol/41.png,NULL,NULL,NULL,Red,0,7,NULL,NULL,NULL,NULL,NULL,mltjsm2eause10x,0,NULL
250,-1,single-stim,-1,249,190165,0.0-11.0-0.228,Symbol/46.png,NULL,NULL,NULL,Red,0,8,NULL,NULL,NULL,NULL,NULL,mltjsm2eause10x,0,NULL
251,-1,single-stim,-1,250,190776,0.0-11.0-0.229,Symbol/35.png,NULL,NULL,NULL,Red,0,9,NULL,NULL,NULL,NULL,NULL,mltjsm2eause10x,0,NULL
252,-1,single-stim,-1,251,191398,0.0-11.0-0.230,Symbol/2.png,NULL,NULL,NULL,Green,0,10,NULL,NULL,NULL,NULL,NULL,mltjsm2eause10x,0,NULL
253,-1,single-stim,-1,252,192000,0.0-11.0-0.231,Symbol/24.png,NULL,NULL,NULL,Green,0,11,NULL,NULL,NULL,NULL,NULL,mltjsm2eause10x,0,NULL
254,-1,single-stim,-1,253,192614,0.0-11.0-0.232,Symbol/40.png,NULL,NULL,NULL,Red,0,12,NULL,NULL,NULL,NULL,NULL,mltjsm2eause10x,0,NULL
255,-1,single-stim,-1,254,193218,0.0-11.0-0.233,Symbol/23.png,NULL,NULL,NULL,Green,0,13,NULL,NULL,NULL,NULL,NULL,mltjsm2eause10x,0,NULL
256,-1,single-stim,-1,255,193836,0.0-11.0-0.234,Symbol/45.png,NULL,NULL,NULL,Red,0,14,NULL,NULL,NULL,NULL,NULL,mltjsm2eause10x,0,NULL
257,-1,single-stim,-1,256,194464,0.0-11.0-0.235,Symbol/45.png,NULL,NULL,NULL,Red,0,15,NULL,NULL,NULL,NULL,NULL,mltjsm2eause10x,0,NULL
258,-1,single-stim,-1,257,195067,0.0-11.0-0.236,Symbol/14.png,NULL,NULL,NULL,Green,0,16,NULL,NULL,NULL,NULL,NULL,mltjsm2eause10x,0,NULL
259,-1,single-stim,-1,258,195687,0.0-11.0-0.237,Symbol/15.png,NULL,NULL,NULL,Green,0,17,NULL,NULL,NULL,NULL,NULL,mltjsm2eause10x,0,NULL
260,-1,single-stim,-1,259,196305,0.0-11.0-0.238,Symbol/25.png,NULL,NULL,NULL,Red,0,18,NULL,NULL,NULL,NULL,NULL,mltjsm2eause10x,0,NULL
261,-1,single-stim,-1,260,196918,0.0-11.0-0.239,Symbol/33.png,NULL,NULL,NULL,Red,0,19,NULL,NULL,NULL,NULL,NULL,mltjsm2eause10x,0,NULL
262,-1,single-stim,-1,261,197540,0.0-11.0-0.240,Symbol/10.png,NULL,NULL,NULL,Green,0,20,NULL,NULL,NULL,NULL,NULL,mltjsm2eause10x,0,NULL
263,-1,single-stim,-1,262,198157,0.0-11.0-0.241,Symbol/37.png,NULL,NULL,NULL,Red,0,21,NULL,NULL,NULL,NULL,NULL,mltjsm2eause10x,0,NULL
264,-1,single-stim,-1,263,198765,0.0-11.0-0.242,Symbol/32.png,NULL,NULL,NULL,Red,0,22,NULL,NULL,NULL,NULL,NULL,mltjsm2eause10x,0,NULL
265,-1,single-stim,-1,264,199367,0.0-11.0-0.243,Symbol/2.png,NULL,NULL,NULL,Green,0,23,NULL,NULL,NULL,NULL,NULL,mltjsm2eause10x,0,NULL
266,-1,single-stim,-1,265,199997,0.0-11.0-0.244,Symbol/40.png,NULL,NULL,NULL,Red,0,24,NULL,NULL,NULL,NULL,NULL,mltjsm2eause10x,0,NULL
267,-1,single-stim,-1,266,200623,0.0-11.0-0.245,Symbol/24.png,NULL,NULL,NULL,Green,0,25,NULL,NULL,NULL,NULL,NULL,mltjsm2eause10x,0,NULL
268,-1,single-stim,-1,267,201249,0.0-11.0-0.246,Symbol/45.png,NULL,NULL,NULL,Red,0,26,NULL,NULL,NULL,NULL,NULL,mltjsm2eause10x,0,NULL
269,-1,single-stim,-1,268,201867,0.0-11.0-0.247,Symbol/25.png,NULL,NULL,NULL,Red,0,27,NULL,NULL,NULL,NULL,NULL,mltjsm2eause10x,0,NULL
270,-1,single-stim,-1,269,202486,0.0-11.0-0.248,Symbol/23.png,NULL,NULL,NULL,Green,0,28,NULL,NULL,NULL,NULL,NULL,mltjsm2eause10x,0,NULL
271,-1,single-stim,-1,270,203100,0.0-11.0-0.249,Symbol/27.png,NULL,NULL,NULL,Red,0,29,NULL,NULL,NULL,NULL,NULL,mltjsm2eause10x,0,NULL
272,-1,single-stim,-1,271,203728,0.0-11.0-0.250,Symbol/42.png,NULL,NULL,NULL,Red,0,30,NULL,NULL,NULL,NULL,NULL,mltjsm2eause10x,0,NULL
273,-1,single-stim,-1,272,204334,0.0-11.0-0.251,Symbol/4.png,NULL,NULL,NULL,Green,0,31,NULL,NULL,NULL,NULL,NULL,mltjsm2eause10x,0,NULL
274,-1,single-stim,-1,273,204952,0.0-11.0-0.252,Symbol/36.png,NULL,NULL,NULL,Red,0,32,NULL,NULL,NULL,NULL,NULL,mltjsm2eause10x,0,NULL
275,-1,single-stim,-1,274,205583,0.0-11.0-0.253,Symbol/41.png,NULL,NULL,NULL,Red,0,33,NULL,NULL,NULL,NULL,NULL,mltjsm2eause10x,0,NULL
276,-1,single-stim,-1,275,206185,0.0-11.0-0.254,Symbol/46.png,NULL,NULL,NULL,Red,0,34,NULL,NULL,NULL,NULL,NULL,mltjsm2eause10x,0,NULL
277,-1,single-stim,-1,276,206802,0.0-11.0-0.255,Symbol/19.png,NULL,NULL,NULL,Green,0,35,NULL,NULL,NULL,NULL,NULL,mltjsm2eause10x,0,NULL
278,-1,single-stim,-1,277,207429,0.0-11.0-0.256,Symbol/35.png,NULL,NULL,NULL,Red,0,36,NULL,NULL,NULL,NULL,NULL,mltjsm2eause10x,0,NULL
279,-1,single-stim,-1,278,208034,0.0-11.0-0.257,Symbol/33.png,NULL,NULL,NULL,Red,0,37,NULL,NULL,NULL,NULL,NULL,mltjsm2eause10x,0,NULL
280,-1,single-stim,-1,279,208659,0.0-11.0-0.258,Symbol/5.png,NULL,NULL,NULL,Green,0,38,NULL,NULL,NULL,NULL,NULL,mltjsm2eause10x,0,NULL
281,-1,single-stim,-1,280,209274,0.0-11.0-0.259,Symbol/37.png,NULL,NULL,NULL,Red,0,39,NULL,NULL,NULL,NULL,NULL,mltjsm2eause10x,0,NULL
282,-1,single-stim,-1,281,209884,0.0-11.0-0.260,Symbol/14.png,NULL,NULL,NULL,Green,0,40,NULL,NULL,NULL,NULL,NULL,mltjsm2eause10x,0,NULL
283,-1,single-stim,-1,282,210503,0.0-11.0-0.261,Symbol/32.png,NULL,NULL,NULL,Red,0,41,NULL,NULL,NULL,NULL,NULL,mltjsm2eause10x,0,NULL
284,-1,single-stim,-1,283,211118,0.0-11.0-0.262,Symbol/15.png,NULL,NULL,NULL,Green,0,42,NULL,NULL,NULL,NULL,NULL,mltjsm2eause10x,0,NULL
285,-1,single-stim,-1,284,211719,0.0-11.0-0.263,Symbol/40.png,NULL,NULL,NULL,Red,0,43,NULL,NULL,NULL,NULL,NULL,mltjsm2eause10x,0,NULL
286,-1,single-stim,-1,285,212334,0.0-11.0-0.264,Symbol/45.png,NULL,NULL,NULL,Red,0,44,NULL,NULL,NULL,NULL,NULL,mltjsm2eause10x,0,NULL
287,-1,single-stim,-1,286,212950,0.0-11.0-0.265,Symbol/25.png,NULL,NULL,NULL,Red,0,45,NULL,NULL,NULL,NULL,NULL,mltjsm2eause10x,0,NULL
288,-1,single-stim,-1,287,213568,0.0-11.0-0.266,Symbol/10.png,NULL,NULL,NULL,Green,0,46,NULL,NULL,NULL,NULL,NULL,mltjsm2eause10x,0,NULL
289,-1,single-stim,-1,288,214182,0.0-11.0-0.267,Symbol/2.png,NULL,NULL,NULL,Green,0,47,NULL,NULL,NULL,NULL,NULL,mltjsm2eause10x,0,NULL
290,-1,single-stim,-1,289,214800,0.0-11.0-0.268,Symbol/41.png,NULL,NULL,NULL,Red,0,48,NULL,NULL,NULL,NULL,NULL,mltjsm2eause10x,0,NULL
291,-1,single-stim,-1,290,215414,0.0-11.0-0.269,Symbol/24.png,NULL,NULL,NULL,Green,0,49,NULL,NULL,NULL,NULL,NULL,mltjsm2eause10x,0,NULL
292,-1,single-stim,-1,291,216033,0.0-11.0-0.270,Symbol/23.png,NULL,NULL,NULL,Green,0,50,NULL,NULL,NULL,NULL,NULL,mltjsm2eause10x,0,NULL
293,-1,single-stim,-1,292,216660,0.0-11.0-0.271,Symbol/14.png,NULL,NULL,NULL,Green,0,51,NULL,NULL,NULL,NULL,NULL,mltjsm2eause10x,0,NULL
294,-1,single-stim,-1,293,217274,0.0-11.0-0.272,Symbol/15.png,NULL,NULL,NULL,Green,0,52,NULL,NULL,NULL,NULL,NULL,mltjsm2eause10x,0,NULL
295,-1,single-stim,-1,294,217880,0.0-11.0-0.273,Symbol/10.png,NULL,NULL,NULL,Green,0,53,NULL,NULL,NULL,NULL,NULL,mltjsm2eause10x,0,NULL
296,-1,single-stim,-1,295,218490,0.0-11.0-0.274,Symbol/10.png,NULL,NULL,NULL,Green,1,0,NULL,NULL,NULL,NULL,NULL,mltjsm2eause10x,0,NULL
297,-1,single-stim,-1,296,219100,0.0-11.0-0.275,Symbol/46.png,NULL,NULL,NULL,Red,0,1,NULL,NULL,NULL,NULL,NULL,mltjsm2eause10x,0,NULL
298,-1,single-stim,-1,297,219717,0.0-11.0-0.276,Symbol/4.png,NULL,NULL,NULL,Green,0,2,NULL,NULL,NULL,NULL,NULL,mltjsm2eause10x,0,NULL
299,-1,single-stim,-1,298,220333,0.0-11.0-0.277,Symbol/35.png,NULL,NULL,NULL,Red,0,3,NULL,NULL,NULL,NULL,NULL,mltjsm2eause10x,0,NULL
300,-1,single-stim,-1,299,220950,0.0-11.0-0.278,Symbol/40.png,NULL,NULL,NULL,Red,0,4,NULL,NULL,NULL,NULL,NULL,mltjsm2eause10x,0,NULL
301,-1,single-stim,-1,300,221568,0.0-11.0-0.279,Symbol/19.png,NULL,NULL,NULL,Green,0,5,NULL,NULL,NULL,NULL,NULL,mltjsm2eause10x,0,NULL
302,-1,single-stim,-1,301,222185,0.0-11.0-0.280,Symbol/40.png,NULL,NULL,NULL,Red,0,6,NULL,NULL,NULL,NULL,NULL,mltjsm2eause10x,0,NULL
303,-1,single-stim,-1,302,222815,0.0-11.0-0.281,Symbol/45.png,NULL,NULL,NULL,Red,0,7,NULL,NULL,NULL,NULL,NULL,mltjsm2eause10x,0,NULL
304,-1,single-stim,-1,303,223429,0.0-11.0-0.282,Symbol/45.png,NULL,NULL,NULL,Red,0,8,NULL,NULL,NULL,NULL,NULL,mltjsm2eause10x,0,NULL
305,-1,single-stim,-1,304,224048,0.0-11.0-0.283,Symbol/19.png,NULL,NULL,NULL,Green,1,0,NULL,NULL,NULL,NULL,NULL,mltjsm2eause10x,0,NULL
306,-1,single-stim,-1,305,224651,0.0-11.0-0.284,Symbol/25.png,NULL,NULL,NULL,Red,0,1,NULL,NULL,NULL,NULL,NULL,mltjsm2eause10x,0,NULL
307,-1,single-stim,-1,306,225269,0.0-11.0-0.285,Symbol/27.png,NULL,NULL,NULL,Red,0,2,NULL,NULL,NULL,NULL,NULL,mltjsm2eause10x,0,NULL
308,-1,single-stim,-1,307,225884,0.0-11.0-0.286,Symbol/5.png,NULL,NULL,NULL,Green,0,3,NULL,NULL,NULL,NULL,NULL,mltjsm2eause10x,0,NULL
309,-1,single-stim,-1,308,226508,0.0-11.0-0.287,Symbol/42.png,NULL,NULL,NULL,Red,0,4,NULL,NULL,NULL,NULL,NULL,mltjsm2eause10x,0,NULL
310,-1,single-stim,-1,309,227118,0.0-11.0-0.288,Symbol/36.png,NULL,NULL,NULL,Red,0,5,NULL,NULL,NULL,NULL,NULL,mltjsm2eause10x,0,NULL
311,-1,single-stim,-1,310,227734,0.0-11.0-0.289,Symbol/40.png,NULL,NULL,NULL,Red,0,6,NULL,NULL,NULL,NULL,NULL,mltjsm2eause10x,0,NULL
312,-1,single-stim,-1,311,228336,0.0-11.0-0.290,Symbol/45.png,NULL,NULL,NULL,Red,0,7,NULL,NULL,NULL,NULL,NULL,mltjsm2eause10x,0,NULL
313,-1,single-stim,-1,312,228964,0.0-11.0-0.291,Symbol/14.png,NULL,NULL,NULL,Green,0,8,NULL,NULL,NULL,NULL,NULL,mltjsm2eause10x,0,NULL
314,-1,single-stim,-1,313,229584,0.0-11.0-0.292,Symbol/25.png,NULL,NULL,NULL,Red,0,9,NULL,NULL,NULL,NULL,NULL,mltjsm2eause10x,0,NULL
315,-1,single-stim,-1,314,230200,0.0-11.0-0.293,Symbol/15.png,NULL,NULL,NULL,Green,0,10,NULL,NULL,NULL,NULL,NULL,mltjsm2eause10x,0,NULL
316,-1,single-stim,-1,315,230820,0.0-11.0-0.294,Symbol/33.png,NULL,NULL,NULL,Red,0,11,NULL,NULL,NULL,NULL,NULL,mltjsm2eause10x,0,NULL
317,-1,single-stim,-1,316,231445,0.0-11.0-0.295,Symbol/10.png,NULL,NULL,NULL,Green,0,12,NULL,NULL,NULL,NULL,NULL,mltjsm2eause10x,0,NULL
318,-1,single-stim,-1,317,232053,0.0-11.0-0.296,Symbol/10.png,NULL,NULL,NULL,Green,1,0,NULL,NULL,NULL,NULL,NULL,mltjsm2eause10x,0,NULL
319,-1,single-stim,-1,318,232661,0.0-11.0-0.297,Symbol/37.png,NULL,NULL,NULL,Red,0,1,NULL,NULL,NULL,NULL,NULL,mltjsm2eause10x,0,NULL
320,-1,single-stim,-1,319,233268,0.0-11.0-0.298,Symbol/2.png,NULL,NULL,NULL,Green,0,2,NULL,NULL,NULL,NULL,NULL,mltjsm2eause10x,0,NULL
321,-1,single-stim,-1,320,233893,0.0-11.0-0.299,Symbol/32.png,NULL,NULL,NULL,Red,0,3,NULL,NULL,NULL,NULL,NULL,mltjsm2eause10x,0,NULL
322,-1,single-stim,-1,321,234510,0.0-11.0-0.300,Symbol/41.png,NULL,NULL,NULL,Red,0,4,NULL,NULL,NULL,NULL,NULL,mltjsm2eause10x,0,NULL
323,-1,single-stim,-1,322,235132,0.0-11.0-0.301,Symbol/24.png,NULL,NULL,NULL,Green,0,5,NULL,NULL,NULL,NULL,NULL,mltjsm2eause10x,0,NULL
324,-1,single-stim,-1,323,235736,0.0-11.0-0.302,Symbol/46.png,NULL,NULL,NULL,Red,0,6,NULL,NULL,NULL,NULL,NULL,mltjsm2eause10x,0,NULL
325,-1,single-stim,-1,324,236352,0.0-11.0-0.303,Symbol/23.png,NULL,NULL,NULL,Green,0,7,NULL,NULL,NULL,NULL,NULL,mltjsm2eause10x,0,NULL
326,-1,single-stim,-1,325,236981,0.0-11.0-0.304,Symbol/4.png,NULL,NULL,NULL,Green,0,8,NULL,NULL,NULL,NULL,NULL,mltjsm2eause10x,0,NULL
327,-1,single-stim,-1,326,237601,0.0-11.0-0.305,Symbol/35.png,NULL,NULL,NULL,Red,0,9,NULL,NULL,NULL,NULL,NULL,mltjsm2eause10x,0,NULL
328,-1,single-stim,-1,327,238216,0.0-11.0-0.306,Symbol/40.png,NULL,NULL,NULL,Red,0,10,NULL,NULL,NULL,NULL,NULL,mltjsm2eause10x,0,NULL
329,-1,single-stim,-1,328,238834,0.0-11.0-0.307,Symbol/40.png,NULL,NULL,NULL,Red,0,11,NULL,NULL,NULL,NULL,NULL,mltjsm2eause10x,0,NULL
330,-1,single-stim,-1,329,239445,0.0-11.0-0.308,Symbol/45.png,NULL,NULL,NULL,Red,0,12,NULL,NULL,NULL,NULL,NULL,mltjsm2eause10x,0,NULL
331,-1,single-stim,-1,330,240065,0.0-11.0-0.309,Symbol/25.png,NULL,NULL,NULL,Red,0,13,NULL,NULL,NULL,NULL,NULL,mltjsm2eause10x,0,NULL
332,-1,single-stim,-1,331,240676,0.0-11.0-0.310,Symbol/41.png,NULL,NULL,NULL,Red,0,14,NULL,NULL,NULL,NULL,NULL,mltjsm2eause10x,0,NULL
333,-1,single-stim,-1,332,241285,0.0-11.0-0.311,Symbol/19.png,NULL,NULL,NULL,Green,0,15,NULL,NULL,NULL,NULL,NULL,mltjsm2eause10x,0,NULL
334,-1,single-stim,-1,333,241902,0.0-11.0-0.312,Symbol/5.png,NULL,NULL,NULL,Green,0,16,NULL,NULL,NULL,NULL,NULL,mltjsm2eause10x,0,NULL
335,-1,single-stim,-1,334,242510,0.0-11.0-0.313,Symbol/46.png,NULL,NULL,NULL,Red,0,17,NULL,NULL,NULL,NULL,NULL,mltjsm2eause10x,0,NULL
336,-1,single-stim,-1,335,243120,0.0-11.0-0.314,Symbol/35.png,NULL,NULL,NULL,Red,0,18,NULL,NULL,NULL,NULL,NULL,mltjsm2eause10x,0,NULL
337,-1,single-stim,-1,336,243733,0.0-11.0-0.315,Symbol/27.png,NULL,NULL,NULL,Red,0,19,NULL,NULL,NULL,NULL,NULL,mltjsm2eause10x,0,NULL
338,-1,single-stim,-1,337,244350,0.0-11.0-0.316,Symbol/42.png,NULL,NULL,NULL,Red,0,20,NULL,NULL,NULL,NULL,NULL,mltjsm2eause10x,0,NULL
339,-1,single-stim,-1,338,244966,0.0-11.0-0.317,Symbol/36.png,NULL,NULL,NULL,Red,0,21,NULL,NULL,NULL,NULL,NULL,mltjsm2eause10x,0,NULL
340,-1,single-stim,-1,339,245586,0.0-11.0-0.318,Symbol/33.png,NULL,NULL,NULL,Red,0,22,NULL,NULL,NULL,NULL,NULL,mltjsm2eause10x,0,NULL
341,-1,single-stim,-1,340,246202,0.0-11.0-0.319,Symbol/7.png,NULL,NULL,NULL,Green,0,23,NULL,NULL,NULL,NULL,NULL,mltjsm2eause10x,0,NULL
342,-1,single-stim,-1,341,246818,0.0-11.0-0.320,Symbol/6.png,NULL,NULL,NULL,Green,0,24,NULL,NULL,NULL,NULL,NULL,mltjsm2eause10x,0,NULL
343,-1,single-stim,-1,342,247446,0.0-11.0-0.321,Symbol/20.png,NULL,NULL,NULL,Green,0,25,NULL,NULL,NULL,NULL,NULL,mltjsm2eause10x,0,NULL
344,-1,single-stim,-1,343,248065,0.0-11.0-0.322,Symbol/37.png,NULL,NULL,NULL,Red,0,26,NULL,NULL,NULL,NULL,NULL,mltjsm2eause10x,0,NULL
345,-1,single-stim,-1,344,248686,0.0-11.0-0.323,Symbol/32.png,NULL,NULL,NULL,Red,0,27,NULL,NULL,NULL,NULL,NULL,mltjsm2eause10x,0,NULL
346,-1,single-stim,-1,345,249296,0.0-11.0-0.324,Symbol/20.png,NULL,NULL,NULL,Green,1,0,NULL,NULL,NULL,NULL,NULL,mltjsm2eause10x,0,NULL
347,-1,single-stim,-1,346,249902,0.0-11.0-0.325,Symbol/2.png,NULL,NULL,NULL,Green,0,1,NULL,NULL,NULL,NULL,NULL,mltjsm2eause10x,0,NULL
348,-1,single-stim,-1,347,250522,0.0-11.0-0.326,Symbol/24.png,NULL,NULL,NULL,Green,0,2,NULL,NULL,NULL,NULL,NULL,mltjsm2eause10x,0,NULL
349,-1,single-stim,-1,348,251133,0.0-11.0-0.327,Symbol/23.png,NULL,NULL,NULL,Green,0,3,NULL,NULL,NULL,NULL,NULL,mltjsm2eause10x,0,NULL
350,-1,single-stim,-1,349,251735,0.0-11.0-0.328,Symbol/4.png,NULL,NULL,NULL,Green,0,4,NULL,NULL,NULL,NULL,NULL,mltjsm2eause10x,0,NULL
351,-1,single-stim,-1,350,252352,0.0-11.0-0.329,Symbol/27.png,NULL,NULL,NULL,Red,0,5,NULL,NULL,NULL,NULL,NULL,mltjsm2eause10x,0,NULL
352,-1,single-stim,-1,351,252969,0.0-11.0-0.330,Symbol/4.png,NULL,NULL,NULL,Green,1,0,NULL,NULL,NULL,NULL,NULL,mltjsm2eause10x,0,NULL
353,-1,single-stim,-1,352,253584,0.0-11.0-0.331,Symbol/19.png,NULL,NULL,NULL,Green,0,1,NULL,NULL,NULL,NULL,NULL,mltjsm2eause10x,0,NULL
354,-1,single-stim,-1,353,254205,0.0-11.0-0.332,Symbol/19.png,NULL,NULL,NULL,Green,1,0,NULL,NULL,NULL,NULL,NULL,mltjsm2eause10x,0,NULL
355,32,single-stim,10,354,254818,0.0-11.0-0.333,Symbol/5.png,NULL,NULL,NULL,Green,0,1,NULL,NULL,NULL,NULL,NULL,mltjsm2eause10x,0,NULL
356,-1,single-stim,-1,355,255430,0.0-11.0-0.334,Symbol/42.png,NULL,NULL,NULL,Red,0,2,NULL,NULL,NULL,NULL,NULL,mltjsm2eause10x,0,NULL
357,-1,single-stim,-1,356,256035,0.0-11.0-0.335,Symbol/2.png,NULL,NULL,NULL,Green,0,3,NULL,NULL,NULL,NULL,NULL,mltjsm2eause10x,0,NULL
358,-1,single-stim,-1,357,256661,0.0-11.0-0.336,Symbol/36.png,NULL,NULL,NULL,Red,0,4,NULL,NULL,NULL,NULL,NULL,mltjsm2eause10x,0,NULL
359,-1,single-stim,-1,358,257280,0.0-11.0-0.337,Symbol/41.png,NULL,NULL,NULL,Red,0,5,NULL,NULL,NULL,NULL,NULL,mltjsm2eause10x,0,NULL
360,-1,single-stim,-1,359,257885,0.0-11.0-0.338,Symbol/24.png,NULL,NULL,NULL,Green,0,6,NULL,NULL,NULL,NULL,NULL,mltjsm2eause10x,0,NULL
361,-1,single-stim,-1,360,258509,0.0-11.0-0.339,Symbol/23.png,NULL,NULL,NULL,Green,0,7,NULL,NULL,NULL,NULL,NULL,mltjsm2eause10x,0,NULL
362,-1,single-stim,-1,361,259131,0.0-11.0-0.340,Symbol/7.png,NULL,NULL,NULL,Green,0,8,NULL,NULL,NULL,NULL,NULL,mltjsm2eause10x,0,NULL
363,-1,single-stim,-1,362,259735,0.0-11.0-0.341,Symbol/6.png,NULL,NULL,NULL,Green,0,9,NULL,NULL,NULL,NULL,NULL,mltjsm2eause10x,0,NULL
364,-1,single-stim,-1,363,260350,0.0-11.0-0.342,Symbol/41.png,NULL,NULL,NULL,Red,0,10,NULL,NULL,NULL,NULL,NULL,mltjsm2eause10x,0,NULL
365,-1,single-stim,-1,364,260958,0.0-11.0-0.343,Symbol/20.png,NULL,NULL,NULL,Green,0,11,NULL,NULL,NULL,NULL,NULL,mltjsm2eause10x,0,NULL
366,-1,single-stim,-1,365,261574,0.0-11.0-0.344,Symbol/46.png,NULL,NULL,NULL,Red,0,12,NULL,NULL,NULL,NULL,NULL,mltjsm2eause10x,0,NULL
367,-1,single-stim,-1,366,262198,0.0-11.0-0.345,Symbol/20.png,NULL,NULL,NULL,Green,1,0,NULL,NULL,NULL,NULL,NULL,mltjsm2eause10x,0,NULL
368,-1,single-stim,-1,367,262801,0.0-11.0-0.346,Symbol/35.png,NULL,NULL,NULL,Red,0,1,NULL,NULL,NULL,NULL,NULL,mltjsm2eause10x,0,NULL
369,-1,single-stim,-1,368,263429,0.0-11.0-0.347,Symbol/4.png,NULL,NULL,NULL,Green,0,2,NULL,NULL,NULL,NULL,NULL,mltjsm2eause10x,0,NULL
370,-1,single-stim,-1,369,264048,0.0-11.0-0.348,Symbol/19.png,NULL,NULL,NULL,Green,0,3,NULL,NULL,NULL,NULL,NULL,mltjsm2eause10x,0,NULL
371,-1,single-stim,-1,370,264660,0.0-11.0-0.349,Symbol/40.png,NULL,NULL,NULL,Red,0,4,NULL,NULL,NULL,NULL,NULL,mltjsm2eause10x,0,NULL
372,-1,single-stim,-1,371,265270,0.0-11.0-0.350,Symbol/45.png,NULL,NULL,NULL,Red,0,5,NULL,NULL,NULL,NULL,NULL,mltjsm2eause10x,0,NULL
373,-1,single-stim,-1,372,265885,0.0-11.0-0.351,Symbol/25.png,NULL,NULL,NULL,Red,0,6,NULL,NULL,NULL,NULL,NULL,mltjsm2eause10x,0,NULL
374,-1,single-stim,-1,373,266492,0.0-11.0-0.352,Symbol/19.png,NULL,NULL,NULL,Green,1,0,NULL,NULL,NULL,NULL,NULL,mltjsm2eause10x,0,NULL
375,-1,single-stim,-1,374,267109,0.0-11.0-0.353,Symbol/5.png,NULL,NULL,NULL,Green,0,1,NULL,NULL,NULL,NULL,NULL,mltjsm2eause10x,0,NULL
376,-1,single-stim,-1,375,267718,0.0-11.0-0.354,Symbol/41.png,NULL,NULL,NULL,Red,0,2,NULL,NULL,NULL,NULL,NULL,mltjsm2eause10x,0,NULL
377,-1,single-stim,-1,376,268334,0.0-11.0-0.355,Symbol/7.png,NULL,NULL,NULL,Green,0,3,NULL,NULL,NULL,NULL,NULL,mltjsm2eause10x,0,NULL
378,-1,single-stim,-1,377,268951,0.0-11.0-0.356,Symbol/41.png,NULL,NULL,NULL,Red,0,4,NULL,NULL,NULL,NULL,NULL,mltjsm2eause10x,0,NULL
379,-1,single-stim,-1,378,269569,0.0-11.0-0.357,Symbol/46.png,NULL,NULL,NULL,Red,0,5,NULL,NULL,NULL,NULL,NULL,mltjsm2eause10x,0,NULL
380,-1,single-stim,-1,379,270201,0.0-11.0-0.358,Symbol/6.png,NULL,NULL,NULL,Green,0,6,NULL,NULL,NULL,NULL,NULL,mltjsm2eause10x,0,NULL
381,-1,single-stim,-1,380,270819,0.0-11.0-0.359,Symbol/35.png,NULL,NULL,NULL,Red,0,7,NULL,NULL,NULL,NULL,NULL,mltjsm2eause10x,0,NULL
382,-1,single-stim,-1,381,271444,0.0-11.0-0.360,Symbol/20.png,NULL,NULL,NULL,Green,0,8,NULL,NULL,NULL,NULL,NULL,mltjsm2eause10x,0,NULL
383,-1,single-stim,-1,382,272052,0.0-11.0-0.361,Symbol/27.png,NULL,NULL,NULL,Red,0,9,NULL,NULL,NULL,NULL,NULL,mltjsm2eause10x,0,NULL
384,-1,single-stim,-1,383,272675,0.0-11.0-0.362,Symbol/42.png,NULL,NULL,NULL,Red,0,10,NULL,NULL,NULL,NULL,NULL,mltjsm2eause10x,0,NULL
385,-1,single-stim,-1,384,273300,0.0-11.0-0.363,Symbol/20.png,NULL,NULL,NULL,Green,1,0,NULL,NULL,NULL,NULL,NULL,mltjsm2eause10x,0,NULL
386,32,single-stim,199,385,273904,0.0-11.0-0.364,Symbol/36.png,NULL,NULL,NULL,Red,0,1,NULL,NULL,NULL,NULL,NULL,mltjsm2eause10x,0,NULL
387,-1,single-stim,-1,386,274524,0.0-11.0-0.365,Symbol/2.png,NULL,NULL,NULL,Green,0,2,NULL,NULL,NULL,NULL,NULL,mltjsm2eause10x,0,NULL
388,-1,single-stim,-1,387,275147,0.0-11.0-0.366,Symbol/24.png,NULL,NULL,NULL,Green,0,3,NULL,NULL,NULL,NULL,NULL,mltjsm2eause10x,0,NULL
389,-1,single-stim,-1,388,275763,0.0-11.0-0.367,Symbol/40.png,NULL,NULL,NULL,Red,0,4,NULL,NULL,NULL,NULL,NULL,mltjsm2eause10x,0,NULL
390,-1,single-stim,-1,389,276384,0.0-11.0-0.368,Symbol/23.png,NULL,NULL,NULL,Green,0,5,NULL,NULL,NULL,NULL,NULL,mltjsm2eause10x,0,NULL
391,-1,single-stim,-1,390,277018,0.0-11.0-0.369,Symbol/45.png,NULL,NULL,NULL,Red,0,6,NULL,NULL,NULL,NULL,NULL,mltjsm2eause10x,0,NULL
392,-1,single-stim,-1,391,277632,0.0-11.0-0.370,Symbol/25.png,NULL,NULL,NULL,Red,0,7,NULL,NULL,NULL,NULL,NULL,mltjsm2eause10x,0,NULL
393,-1,single-stim,-1,392,278235,0.0-11.0-0.371,Symbol/14.png,NULL,NULL,NULL,Green,0,8,NULL,NULL,NULL,NULL,NULL,mltjsm2eause10x,0,NULL
394,-1,single-stim,-1,393,278855,0.0-11.0-0.372,Symbol/25.png,NULL,NULL,NULL,Red,0,9,NULL,NULL,NULL,NULL,NULL,mltjsm2eause10x,0,NULL
395,-1,single-stim,-1,394,279477,0.0-11.0-0.373,Symbol/27.png,NULL,NULL,NULL,Red,0,10,NULL,NULL,NULL,NULL,NULL,mltjsm2eause10x,0,NULL
396,-1,single-stim,-1,395,280086,0.0-11.0-0.374,Symbol/42.png,NULL,NULL,NULL,Red,0,11,NULL,NULL,NULL,NULL,NULL,mltjsm2eause10x,0,NULL
397,-1,single-stim,-1,396,280713,0.0-11.0-0.375,Symbol/15.png,NULL,NULL,NULL,Green,0,12,NULL,NULL,NULL,NULL,NULL,mltjsm2eause10x,0,NULL
398,-1,single-stim,-1,397,281320,0.0-11.0-0.376,Symbol/10.png,NULL,NULL,NULL,Green,0,13,NULL,NULL,NULL,NULL,NULL,mltjsm2eause10x,0,NULL
399,-1,single-stim,-1,398,281941,0.0-11.0-0.377,Symbol/4.png,NULL,NULL,NULL,Green,0,14,NULL,NULL,NULL,NULL,NULL,mltjsm2eause10x,0,NULL
400,-1,single-stim,-1,399,282550,0.0-11.0-0.378,Symbol/36.png,NULL,NULL,NULL,Red,0,15,NULL,NULL,NULL,NULL,NULL,mltjsm2eause10x,0,NULL
401,-1,single-stim,-1,400,283168,0.0-11.0-0.379,Symbol/19.png,NULL,NULL,NULL,Green,0,16,NULL,NULL,NULL,NULL,NULL,mltjsm2eause10x,0,NULL
402,-1,single-stim,-1,401,283789,0.0-11.0-0.380,Symbol/5.png,NULL,NULL,NULL,Green,0,17,NULL,NULL,NULL,NULL,NULL,mltjsm2eause10x,0,NULL
403,-1,single-stim,-1,402,284402,0.0-11.0-0.381,Symbol/41.png,NULL,NULL,NULL,Red,0,18,NULL,NULL,NULL,NULL,NULL,mltjsm2eause10x,0,NULL
404,-1,single-stim,-1,403,285014,0.0-11.0-0.382,Symbol/2.png,NULL,NULL,NULL,Green,0,19,NULL,NULL,NULL,NULL,NULL,mltjsm2eause10x,0,NULL
405,-1,single-stim,-1,404,285634,0.0-11.0-0.383,Symbol/24.png,NULL,NULL,NULL,Green,0,20,NULL,NULL,NULL,NULL,NULL,mltjsm2eause10x,0,NULL
406,-1,single-stim,-1,405,286245,0.0-11.0-0.384,Symbol/23.png,NULL,NULL,NULL,Green,0,21,NULL,NULL,NULL,NULL,NULL,mltjsm2eause10x,0,NULL
407,-1,single-stim,-1,406,286851,0.0-11.0-0.385,Symbol/46.png,NULL,NULL,NULL,Red,0,22,NULL,NULL,NULL,NULL,NULL,mltjsm2eause10x,0,NULL
408,-1,single-stim,-1,407,287480,0.0-11.0-0.386,Symbol/4.png,NULL,NULL,NULL,Green,0,23,NULL,NULL,NULL,NULL,NULL,mltjsm2eause10x,0,NULL
409,-1,single-stim,-1,408,288084,0.0-11.0-0.387,Symbol/35.png,NULL,NULL,NULL,Red,0,24,NULL,NULL,NULL,NULL,NULL,mltjsm2eause10x,0,NULL
410,-1,single-stim,-1,409,288701,0.0-11.0-0.388,Symbol/27.png,NULL,NULL,NULL,Red,0,25,NULL,NULL,NULL,NULL,NULL,mltjsm2eause10x,0,NULL
411,-1,single-stim,-1,410,289320,0.0-11.0-0.389,Symbol/19.png,NULL,NULL,NULL,Green,0,26,NULL,NULL,NULL,NULL,NULL,mltjsm2eause10x,0,NULL
412,-1,single-stim,-1,411,289932,0.0-11.0-0.390,Symbol/42.png,NULL,NULL,NULL,Red,0,27,NULL,NULL,NULL,NULL,NULL,mltjsm2eause10x,0,NULL
413,-1,single-stim,-1,412,290543,0.0-11.0-0.391,Symbol/36.png,NULL,NULL,NULL,Red,0,28,NULL,NULL,NULL,NULL,NULL,mltjsm2eause10x,0,NULL
414,-1,single-stim,-1,413,291152,0.0-11.0-0.392,Symbol/33.png,NULL,NULL,NULL,Red,0,29,NULL,NULL,NULL,NULL,NULL,mltjsm2eause10x,0,NULL
415,-1,single-stim,-1,414,291757,0.0-11.0-0.393,Symbol/5.png,NULL,NULL,NULL,Green,0,30,NULL,NULL,NULL,NULL,NULL,mltjsm2eause10x,0,NULL
416,-1,single-stim,-1,415,292367,0.0-11.0-0.394,Symbol/37.png,NULL,NULL,NULL,Red,0,31,NULL,NULL,NULL,NULL,NULL,mltjsm2eause10x,0,NULL
417,-1,single-stim,-1,416,292997,0.0-11.0-0.395,Symbol/32.png,NULL,NULL,NULL,Red,0,32,NULL,NULL,NULL,NULL,NULL,mltjsm2eause10x,0,NULL
418,-1,single-stim,-1,417,293609,0.0-11.0-0.396,Symbol/41.png,NULL,NULL,NULL,Red,0,33,NULL,NULL,NULL,NULL,NULL,mltjsm2eause10x,0,NULL
419,-1,single-stim,-1,418,294217,0.0-11.0-0.397,Symbol/46.png,NULL,NULL,NULL,Red,0,34,NULL,NULL,NULL,NULL,NULL,mltjsm2eause10x,0,NULL
420,-1,single-stim,-1,419,294831,0.0-11.0-0.398,Symbol/7.png,NULL,NULL,NULL,Green,0,35,NULL,NULL,NULL,NULL,NULL,mltjsm2eause10x,0,NULL
421,-1,single-stim,-1,420,295439,0.0-11.0-0.399,Symbol/6.png,NULL,NULL,NULL,Green,0,36,NULL,NULL,NULL,NULL,NULL,mltjsm2eause10x,0,NULL
422,-1,single-stim,-1,421,296064,0.0-11.0-0.400,Symbol/35.png,NULL,NULL,NULL,Red,0,37,NULL,NULL,NULL,NULL,NULL,mltjsm2eause10x,0,NULL
423,-1,single-stim,-1,422,296679,0.0-11.0-0.401,Symbol/33.png,NULL,NULL,NULL,Red,0,38,NULL,NULL,NULL,NULL,NULL,mltjsm2eause10x,0,NULL
424,-1,single-stim,-1,423,297299,0.0-11.0-0.402,Symbol/37.png,NULL,NULL,NULL,Red,0,39,NULL,NULL,NULL,NULL,NULL,mltjsm2eause10x,0,NULL
425,-1,single-stim,-1,424,297905,0.0-11.0-0.403,Symbol/32.png,NULL,NULL,NULL,Red,0,40,NULL,NULL,NULL,NULL,NULL,mltjsm2eause10x,0,NULL
426,-1,single-stim,-1,425,298519,0.0-11.0-0.404,Symbol/27.png,NULL,NULL,NULL,Red,0,41,NULL,NULL,NULL,NULL,NULL,mltjsm2eause10x,0,NULL
427,-1,single-stim,-1,426,299127,0.0-11.0-0.405,Symbol/20.png,NULL,NULL,NULL,Green,0,42,NULL,NULL,NULL,NULL,NULL,mltjsm2eause10x,0,NULL
428,-1,single-stim,-1,427,299738,0.0-11.0-0.406,Symbol/4.png,NULL,NULL,NULL,Green,0,43,NULL,NULL,NULL,NULL,NULL,mltjsm2eause10x,0,NULL
429,-1,single-stim,-1,428,300351,0.0-11.0-0.407,Symbol/42.png,NULL,NULL,NULL,Red,0,44,NULL,NULL,NULL,NULL,NULL,mltjsm2eause10x,0,NULL
430,-1,single-stim,-1,429,300967,0.0-11.0-0.408,Symbol/19.png,NULL,NULL,NULL,Green,0,45,NULL,NULL,NULL,NULL,NULL,mltjsm2eause10x,0,NULL
431,-1,single-stim,-1,430,301583,0.0-11.0-0.409,Symbol/5.png,NULL,NULL,NULL,Green,0,46,NULL,NULL,NULL,NULL,NULL,mltjsm2eause10x,0,NULL
432,-1,single-stim,-1,431,302199,0.0-11.0-0.410,Symbol/5.png,NULL,NULL,NULL,Green,1,0,NULL,NULL,NULL,NULL,NULL,mltjsm2eause10x,0,NULL
433,-1,single-stim,-1,432,302808,0.0-11.0-0.411,Symbol/2.png,NULL,NULL,NULL,Green,0,1,NULL,NULL,NULL,NULL,NULL,mltjsm2eause10x,0,NULL
434,-1,single-stim,-1,433,303430,0.0-11.0-0.412,Symbol/36.png,NULL,NULL,NULL,Red,0,2,NULL,NULL,NULL,NULL,NULL,mltjsm2eause10x,0,NULL
435,-1,single-stim,-1,434,304033,0.0-11.0-0.413,Symbol/24.png,NULL,NULL,NULL,Green,0,3,NULL,NULL,NULL,NULL,NULL,mltjsm2eause10x,0,NULL
436,-1,single-stim,-1,435,304636,0.0-11.0-0.414,Symbol/41.png,NULL,NULL,NULL,Red,0,4,NULL,NULL,NULL,NULL,NULL,mltjsm2eause10x,0,NULL
437,-1,single-stim,-1,436,305257,0.0-11.0-0.415,Symbol/23.png,NULL,NULL,NULL,Green,0,5,NULL,NULL,NULL,NULL,NULL,mltjsm2eause10x,0,NULL
438,-1,single-stim,-1,437,305865,0.0-11.0-0.416,Symbol/4.png,NULL,NULL,NULL,Green,0,6,NULL,NULL,NULL,NULL,NULL,mltjsm2eause10x,0,NULL
439,-1,single-stim,-1,438,306477,0.0-11.0-0.417,Symbol/19.png,NULL,NULL,NULL,Green,0,7,NULL,NULL,NULL,NULL,NULL,mltjsm2eause10x,0,NULL
440,-1,single-stim,-1,439,307086,0.0-11.0-0.418,Symbol/46.png,NULL,NULL,NULL,Red,0,8,NULL,NULL,NULL,NULL,NULL,mltjsm2eause10x,0,NULL
441,-1,single-stim,-1,440,307709,0.0-11.0-0.419,Symbol/35.png,NULL,NULL,NULL,Red,0,9,NULL,NULL,NULL,NULL,NULL,mltjsm2eause10x,0,NULL
442,-1,single-stim,-1,441,308316,0.0-11.0-0.420,Symbol/40.png,NULL,NULL,NULL,Red,0,10,NULL,NULL,NULL,NULL,NULL,mltjsm2eause10x,0,NULL
443,-1,single-stim,-1,442,308933,0.0-11.0-0.421,Symbol/45.png,NULL,NULL,NULL,Red,0,11,NULL,NULL,NULL,NULL,NULL,mltjsm2eause10x,0,NULL
444,-1,single-stim,-1,443,309556,0.0-11.0-0.422,Symbol/25.png,NULL,NULL,NULL,Red,0,12,NULL,NULL,NULL,NULL,NULL,mltjsm2eause10x,0,NULL
445,-1,single-stim,-1,444,310170,0.0-11.0-0.423,Symbol/27.png,NULL,NULL,NULL,Red,0,13,NULL,NULL,NULL,NULL,NULL,mltjsm2eause10x,0,NULL
446,-1,single-stim,-1,445,310777,0.0-11.0-0.424,Symbol/42.png,NULL,NULL,NULL,Red,0,14,NULL,NULL,NULL,NULL,NULL,mltjsm2eause10x,0,NULL
447,-1,single-stim,-1,446,311386,0.0-11.0-0.425,Symbol/5.png,NULL,NULL,NULL,Green,0,15,NULL,NULL,NULL,NULL,NULL,mltjsm2eause10x,0,NULL
448,-1,single-stim,-1,447,312001,0.0-11.0-0.426,Symbol/14.png,NULL,NULL,NULL,Green,0,16,NULL,NULL,NULL,NULL,NULL,mltjsm2eause10x,0,NULL
449,-1,single-stim,-1,448,312625,0.0-11.0-0.427,Symbol/15.png,NULL,NULL,NULL,Green,0,17,NULL,NULL,NULL,NULL,NULL,mltjsm2eause10x,0,NULL
450,-1,single-stim,-1,449,313234,0.0-11.0-0.428,Symbol/10.png,NULL,NULL,NULL,Green,0,18,NULL,NULL,NULL,NULL,NULL,mltjsm2eause10x,0,NULL
451,-1,single-stim,-1,450,313848,0.0-11.0-0.429,Symbol/7.png,NULL,NULL,NULL,Green,0,19,NULL,NULL,NULL,NULL,NULL,mltjsm2eause10x,0,NULL
452,-1,single-stim,-1,451,314452,0.0-11.0-0.430,Symbol/6.png,NULL,NULL,NULL,Green,0,20,NULL,NULL,NULL,NULL,NULL,mltjsm2eause10x,0,NULL
453,-1,single-stim,-1,452,315067,0.0-11.0-0.431,Symbol/20.png,NULL,NULL,NULL,Green,0,21,NULL,NULL,NULL,NULL,NULL,mltjsm2eause10x,0,NULL
454,-1,single-stim,-1,453,315683,0.0-11.0-0.432,Symbol/36.png,NULL,NULL,NULL,Red,0,22,NULL,NULL,NULL,NULL,NULL,mltjsm2eause10x,0,NULL
455,-1,single-stim,-1,454,316299,0.0-11.0-0.433,Symbol/33.png,NULL,NULL,NULL,Red,0,23,NULL,NULL,NULL,NULL,NULL,mltjsm2eause10x,0,NULL
456,-1,single-stim,-1,455,316911,0.0-11.0-0.434,Symbol/4.png,NULL,NULL,NULL,Green,0,24,NULL,NULL,NULL,NULL,NULL,mltjsm2eause10x,0,NULL
457,-1,single-stim,-1,456,317531,0.0-11.0-0.435,Symbol/37.png,NULL,NULL,NULL,Red,0,25,NULL,NULL,NULL,NULL,NULL,mltjsm2eause10x,0,NULL
458,-1,single-stim,-1,457,318135,0.0-11.0-0.436,Symbol/19.png,NULL,NULL,NULL,Green,0,26,NULL,NULL,NULL,NULL,NULL,mltjsm2eause10x,0,NULL
459,-1,single-stim,-1,458,318750,0.0-11.0-0.437,Symbol/32.png,NULL,NULL,NULL,Red,0,27,NULL,NULL,NULL,NULL,NULL,mltjsm2eause10x,0,NULL
460,-1,single-stim,-1,459,319352,0.0-11.0-0.438,Symbol/5.png,NULL,NULL,NULL,Green,0,28,NULL,NULL,NULL,NULL,NULL,mltjsm2eause10x,0,NULL
461,-1,single-stim,-1,460,319969,0.0-11.0-0.439,Symbol/7.png,NULL,NULL,NULL,Green,0,29,NULL,NULL,NULL,NULL,NULL,mltjsm2eause10x,0,NULL
462,-1,single-stim,-1,461,320596,0.0-11.0-0.440,Symbol/27.png,NULL,NULL,NULL,Red,0,30,NULL,NULL,NULL,NULL,NULL,mltjsm2eause10x,0,NULL
463,-1,single-stim,-1,462,321200,0.0-11.0-0.441,Symbol/7.png,NULL,NULL,NULL,Green,1,0,NULL,NULL,NULL,NULL,NULL,mltjsm2eause10x,0,NULL
464,-1,single-stim,-1,463,321817,0.0-11.0-0.442,Symbol/6.png,NULL,NULL,NULL,Green,0,1,NULL,NULL,NULL,NULL,NULL,mltjsm2eause10x,0,NULL
465,-1,single-stim,-1,464,322443,0.0-11.0-0.443,Symbol/42.png,NULL,NULL,NULL,Red,0,2,NULL,NULL,NULL,NULL,NULL,mltjsm2eause10x,0,NULL
466,-1,single-stim,-1,465,323067,0.0-11.0-0.444,Symbol/20.png,NULL,NULL,NULL,Green,0,3,NULL,NULL,NULL,NULL,NULL,mltjsm2eause10x,0,NULL
467,-1,single-stim,-1,466,323693,0.0-11.0-0.445,Symbol/36.png,NULL,NULL,NULL,Red,0,4,NULL,NULL,NULL,NULL,NULL,mltjsm2eause10x,0,NULL
468,-1,single-stim,-1,467,324315,0.0-11.0-0.446,Symbol/14.png,NULL,NULL,NULL,Green,0,5,NULL,NULL,NULL,NULL,NULL,mltjsm2eause10x,0,NULL
469,-1,single-stim,-1,468,324932,0.0-11.0-0.447,Symbol/15.png,NULL,NULL,NULL,Green,0,6,NULL,NULL,NULL,NULL,NULL,mltjsm2eause10x,0,NULL
470,-1,single-stim,-1,469,325543,0.0-11.0-0.448,Symbol/10.png,NULL,NULL,NULL,Green,0,7,NULL,NULL,NULL,NULL,NULL,mltjsm2eause10x,0,NULL
471,-1,single-stim,-1,470,326151,0.0-11.0-0.449,Symbol/7.png,NULL,NULL,NULL,Green,0,8,NULL,NULL,NULL,NULL,NULL,mltjsm2eause10x,0,NULL
472,-1,single-stim,-1,471,326767,0.0-11.0-0.450,Symbol/6.png,NULL,NULL,NULL,Green,0,9,NULL,NULL,NULL,NULL,NULL,mltjsm2eause10x,0,NULL
473,-1,single-stim,-1,472,327383,0.0-11.0-0.451,Symbol/20.png,NULL,NULL,NULL,Green,0,10,NULL,NULL,NULL,NULL,NULL,mltjsm2eause10x,0,NULL
474,-1,single-stim,-1,473,327997,0.0-11.0-0.452,Symbol/41.png,NULL,NULL,NULL,Red,0,11,NULL,NULL,NULL,NULL,NULL,mltjsm2eause10x,0,NULL
475,-1,single-stim,-1,474,328613,0.0-11.0-0.453,Symbol/46.png,NULL,NULL,NULL,Red,0,12,NULL,NULL,NULL,NULL,NULL,mltjsm2eause10x,0,NULL
476,-1,single-stim,-1,475,329225,0.0-11.0-0.454,Symbol/4.png,NULL,NULL,NULL,Green,0,13,NULL,NULL,NULL,NULL,NULL,mltjsm2eause10x,0,NULL
477,-1,single-stim,-1,476,329836,0.0-11.0-0.455,Symbol/35.png,NULL,NULL,NULL,Red,0,14,NULL,NULL,NULL,NULL,NULL,mltjsm2eause10x,0,NULL
478,-1,single-stim,-1,477,330462,0.0-11.0-0.456,Symbol/27.png,NULL,NULL,NULL,Red,0,15,NULL,NULL,NULL,NULL,NULL,mltjsm2eause10x,0,NULL
479,-1,single-stim,-1,478,331085,0.0-11.0-0.457,Symbol/19.png,NULL,NULL,NULL,Green,0,16,NULL,NULL,NULL,NULL,NULL,mltjsm2eause10x,0,NULL
480,-1,single-stim,-1,479,331701,0.0-11.0-0.458,Symbol/42.png,NULL,NULL,NULL,Red,0,17,NULL,NULL,NULL,NULL,NULL,mltjsm2eause10x,0,NULL
481,-1,single-stim,-1,480,332318,0.0-11.0-0.459,Symbol/36.png,NULL,NULL,NULL,Red,0,18,NULL,NULL,NULL,NULL,NULL,mltjsm2eause10x,0,NULL
482,-1,single-stim,-1,481,332940,0.0-11.0-0.460,Symbol/36.png,NULL,NULL,NULL,Red,0,19,NULL,NULL,NULL,NULL,NULL,mltjsm2eause10x,0,NULL
483,-1,single-stim,-1,482,333552,0.0-11.0-0.461,Symbol/40.png,NULL,NULL,NULL,Red,0,20,NULL,NULL,NULL,NULL,NULL,mltjsm2eause10x,0,NULL
484,-1,single-stim,-1,483,334164,0.0-11.0-0.462,Symbol/45.png,NULL,NULL,NULL,Red,0,21,NULL,NULL,NULL,NULL,NULL,mltjsm2eause10x,0,NULL
485,-1,single-stim,-1,484,334783,0.0-11.0-0.463,Symbol/25.png,NULL,NULL,NULL,Red,0,22,NULL,NULL,NULL,NULL,NULL,mltjsm2eause10x,0,NULL
486,-1,single-stim,-1,485,335415,0.0-11.0-0.464,Symbol/5.png,NULL,NULL,NULL,Green,0,23,NULL,NULL,NULL,NULL,NULL,mltjsm2eause10x,0,NULL
487,-1,single-stim,-1,486,336019,0.0-11.0-0.465,Symbol/33.png,NULL,NULL,NULL,Red,0,24,NULL,NULL,NULL,NULL,NULL,mltjsm2eause10x,0,NULL
488,-1,single-stim,-1,487,336631,0.0-11.0-0.466,Symbol/33.png,NULL,NULL,NULL,Red,0,25,NULL,NULL,NULL,NULL,NULL,mltjsm2eause10x,0,NULL
489,-1,single-stim,-1,488,337236,0.0-11.0-0.467,Symbol/5.png,NULL,NULL,NULL,Green,1,0,NULL,NULL,NULL,NULL,NULL,mltjsm2eause10x,0,NULL
490,-1,single-stim,-1,489,337850,0.0-11.0-0.468,Symbol/37.png,NULL,NULL,NULL,Red,0,1,NULL,NULL,NULL,NULL,NULL,mltjsm2eause10x,0,NULL
491,-1,single-stim,-1,490,338475,0.0-11.0-0.469,Symbol/5.png,NULL,NULL,NULL,Green,1,0,NULL,NULL,NULL,NULL,NULL,mltjsm2eause10x,0,NULL
492,32,single-stim,285,491,339083,0.0-11.0-0.470,Symbol/32.png,NULL,NULL,NULL,Red,0,1,NULL,NULL,NULL,NULL,NULL,mltjsm2eause10x,0,NULL
493,-1,single-stim,-1,492,339692,0.0-11.0-0.471,Symbol/14.png,NULL,NULL,NULL,Green,0,2,NULL,NULL,NULL,NULL,NULL,mltjsm2eause10x,0,NULL
494,-1,single-stim,-1,493,340315,0.0-11.0-0.472,Symbol/27.png,NULL,NULL,NULL,Red,0,3,NULL,NULL,NULL,NULL,NULL,mltjsm2eause10x,0,NULL
495,-1,single-stim,-1,494,340925,0.0-11.0-0.473,Symbol/42.png,NULL,NULL,NULL,Red,0,4,NULL,NULL,NULL,NULL,NULL,mltjsm2eause10x,0,NULL
496,-1,single-stim,-1,495,341536,0.0-11.0-0.474,Symbol/36.png,NULL,NULL,NULL,Red,0,5,NULL,NULL,NULL,NULL,NULL,mltjsm2eause10x,0,NULL
497,-1,single-stim,-1,496,342151,0.0-11.0-0.475,Symbol/15.png,NULL,NULL,NULL,Green,0,6,NULL,NULL,NULL,NULL,NULL,mltjsm2eause10x,0,NULL
498,-1,single-stim,-1,497,342756,0.0-11.0-0.476,Symbol/33.png,NULL,NULL,NULL,Red,0,7,NULL,NULL,NULL,NULL,NULL,mltjsm2eause10x,0,NULL
499,-1,single-stim,-1,498,343368,0.0-11.0-0.477,Symbol/37.png,NULL,NULL,NULL,Red,0,8,NULL,NULL,NULL,NULL,NULL,mltjsm2eause10x,0,NULL
500,-1,single-stim,-1,499,343991,0.0-11.0-0.478,Symbol/32.png,NULL,NULL,NULL,Red,0,9,NULL,NULL,NULL,NULL,NULL,mltjsm2eause10x,0,NULL
501,-1,single-stim,-1,500,344602,0.0-11.0-0.479,Symbol/10.png,NULL,NULL,NULL,Green,0,10,NULL,NULL,NULL,NULL,NULL,mltjsm2eause10x,0,NULL
502,-1,single-stim,-1,501,345215,0.0-11.0-0.480,Symbol/4.png,NULL,NULL,NULL,Green,0,11,NULL,NULL,NULL,NULL,NULL,mltjsm2eause10x,0,NULL
503,-1,single-stim,-1,502,345834,0.0-11.0-0.481,Symbol/19.png,NULL,NULL,NULL,Green,0,12,NULL,NULL,NULL,NULL,NULL,mltjsm2eause10x,0,NULL
504,-1,single-stim,-1,503,346464,0.0-11.0-0.482,Symbol/41.png,NULL,NULL,NULL,Red,0,13,NULL,NULL,NULL,NULL,NULL,mltjsm2eause10x,0,NULL
505,-1,single-stim,-1,504,347067,0.0-11.0-0.483,Symbol/46.png,NULL,NULL,NULL,Red,0,14,NULL,NULL,NULL,NULL,NULL,mltjsm2eause10x,0,NULL
506,-1,single-stim,-1,505,347681,0.0-11.0-0.484,Symbol/46.png,NULL,NULL,NULL,Red,0,15,NULL,NULL,NULL,NULL,NULL,mltjsm2eause10x,0,NULL
507,-1,single-stim,-1,506,348299,0.0-11.0-0.485,Symbol/35.png,NULL,NULL,NULL,Red,0,16,NULL,NULL,NULL,NULL,NULL,mltjsm2eause10x,0,NULL
508,-1,single-stim,-1,507,348926,0.0-11.0-0.486,Symbol/40.png,NULL,NULL,NULL,Red,0,17,NULL,NULL,NULL,NULL,NULL,mltjsm2eause10x,0,NULL
509,-1,single-stim,-1,508,349535,0.0-11.0-0.487,Symbol/5.png,NULL,NULL,NULL,Green,0,18,NULL,NULL,NULL,NULL,NULL,mltjsm2eause10x,0,NULL
510,-1,single-stim,-1,509,350150,0.0-11.0-0.488,Symbol/2.png,NULL,NULL,NULL,Green,0,19,NULL,NULL,NULL,NULL,NULL,mltjsm2eause10x,0,NULL
511,-1,single-stim,-1,510,350758,0.0-11.0-0.489,Symbol/24.png,NULL,NULL,NULL,Green,0,20,NULL,NULL,NULL,NULL,NULL,mltjsm2eause10x,0,NULL
512,-1,single-stim,-1,511,351369,0.0-11.0-0.490,Symbol/23.png,NULL,NULL,NULL,Green,0,21,NULL,NULL,NULL,NULL,NULL,mltjsm2eause10x,0,NULL
513,-1,single-stim,-1,512,351983,0.0-11.0-0.491,Symbol/45.png,NULL,NULL,NULL,Red,0,22,NULL,NULL,NULL,NULL,NULL,mltjsm2eause10x,0,NULL
514,-1,single-stim,-1,513,352604,0.0-11.0-0.492,Symbol/25.png,NULL,NULL,NULL,Red,0,23,NULL,NULL,NULL,NULL,NULL,mltjsm2eause10x,0,NULL
515,-1,single-stim,-1,514,353220,0.0-11.0-0.493,Symbol/23.png,NULL,NULL,NULL,Green,1,0,NULL,NULL,NULL,NULL,NULL,mltjsm2eause10x,0,NULL
516,-1,single-stim,-1,515,353833,0.0-11.0-0.494,Symbol/4.png,NULL,NULL,NULL,Green,0,1,NULL,NULL,NULL,NULL,NULL,mltjsm2eause10x,0,NULL
517,-1,single-stim,-1,516,354446,0.0-11.0-0.495,Symbol/27.png,NULL,NULL,NULL,Red,0,2,NULL,NULL,NULL,NULL,NULL,mltjsm2eause10x,0,NULL
518,-1,single-stim,-1,517,355067,0.0-11.0-0.496,Symbol/42.png,NULL,NULL,NULL,Red,0,3,NULL,NULL,NULL,NULL,NULL,mltjsm2eause10x,0,NULL
519,-1,single-stim,-1,518,355685,0.0-11.0-0.497,Symbol/36.png,NULL,NULL,NULL,Red,0,4,NULL,NULL,NULL,NULL,NULL,mltjsm2eause10x,0,NULL
520,-1,single-stim,-1,519,356289,0.0-11.0-0.498,Symbol/41.png,NULL,NULL,NULL,Red,0,5,NULL,NULL,NULL,NULL,NULL,mltjsm2eause10x,0,NULL
521,-1,single-stim,-1,520,356915,0.0-11.0-0.499,Symbol/19.png,NULL,NULL,NULL,Green,0,6,NULL,NULL,NULL,NULL,NULL,mltjsm2eause10x,0,NULL
522,-1,single-stim,-1,521,357524,0.0-11.0-0.500,Symbol/5.png,NULL,NULL,NULL,Green,0,7,NULL,NULL,NULL,NULL,NULL,mltjsm2eause10x,0,NULL
523,-1,single-stim,-1,522,358133,0.0-11.0-0.501,Symbol/46.png,NULL,NULL,NULL,Red,0,8,NULL,NULL,NULL,NULL,NULL,mltjsm2eause10x,0,NULL
524,-1,single-stim,-1,523,358745,0.0-11.0-0.502,Symbol/46.png,NULL,NULL,NULL,Red,0,9,NULL,NULL,NULL,NULL,NULL,mltjsm2eause10x,0,NULL
525,-1,single-stim,-1,524,359352,0.0-11.0-0.503,Symbol/35.png,NULL,NULL,NULL,Red,0,10,NULL,NULL,NULL,NULL,NULL,mltjsm2eause10x,0,NULL
526,-1,single-stim,-1,525,359967,0.0-11.0-0.504,Symbol/27.png,NULL,NULL,NULL,Red,0,11,NULL,NULL,NULL,NULL,NULL,mltjsm2eause10x,0,NULL
527,-1,single-stim,-1,526,360584,0.0-11.0-0.505,Symbol/14.png,NULL,NULL,NULL,Green,0,12,NULL,NULL,NULL,NULL,NULL,mltjsm2eause10x,0,NULL
528,-1,single-stim,-1,527,361199,0.0-11.0-0.506,Symbol/15.png,NULL,NULL,NULL,Green,0,13,NULL,NULL,NULL,NULL,NULL,mltjsm2eause10x,0,NULL
529,-1,single-stim,-1,528,361832,0.0-11.0-0.507,Symbol/42.png,NULL,NULL,NULL,Red,0,14,NULL,NULL,NULL,NULL,NULL,mltjsm2eause10x,0,NULL
530,-1,single-stim,-1,529,362447,0.0-11.0-0.508,Symbol/36.png,NULL,NULL,NULL,Red,0,15,NULL,NULL,NULL,NULL,NULL,mltjsm2eause10x,0,NULL
531,-1,single-stim,-1,530,363065,0.0-11.0-0.509,Symbol/10.png,NULL,NULL,NULL,Green,0,16,NULL,NULL,NULL,NULL,NULL,mltjsm2eause10x,0,NULL
532,-1,single-stim,-1,531,363677,0.0-11.0-0.510,Symbol/33.png,NULL,NULL,NULL,Red,0,17,NULL,NULL,NULL,NULL,NULL,mltjsm2eause10x,0,NULL
533,-1,single-stim,-1,532,364285,0.0-11.0-0.511,Symbol/4.png,NULL,NULL,NULL,Green,0,18,NULL,NULL,NULL,NULL,NULL,mltjsm2eause10x,0,NULL
534,-1,single-stim,-1,533,364900,0.0-11.0-0.512,Symbol/19.png,NULL,NULL,NULL,Green,0,19,NULL,NULL,NULL,NULL,NULL,mltjsm2eause10x,0,NULL
535,-1,single-stim,-1,534,365508,0.0-11.0-0.513,Symbol/37.png,NULL,NULL,NULL,Red,0,20,NULL,NULL,NULL,NULL,NULL,mltjsm2eause10x,0,NULL
536,-1,single-stim,-1,535,366120,0.0-11.0-0.514,Symbol/32.png,NULL,NULL,NULL,Red,0,21,NULL,NULL,NULL,NULL,NULL,mltjsm2eause10x,0,NULL
537,-1,single-stim,-1,536,366733,0.0-11.0-0.515,Symbol/5.png,NULL,NULL,NULL,Green,0,22,NULL,NULL,NULL,NULL,NULL,mltjsm2eause10x,0,NULL
538,-1,single-stim,-1,537,367350,0.0-11.0-0.516,Symbol/7.png,NULL,NULL,NULL,Green,0,23,NULL,NULL,NULL,NULL,NULL,mltjsm2eause10x,0,NULL
539,-1,single-stim,-1,538,367982,0.0-11.0-0.517,Symbol/7.png,NULL,NULL,NULL,Green,1,0,NULL,NULL,NULL,NULL,NULL,mltjsm2eause10x,0,NULL
540,32,single-stim,136,539,368585,0.0-11.0-0.518,Symbol/6.png,NULL,NULL,NULL,Green,0,1,NULL,NULL,NULL,NULL,NULL,mltjsm2eause10x,0,NULL
541,-1,single-stim,-1,540,369202,0.0-11.0-0.519,Symbol/27.png,NULL,NULL,NULL,Red,0,2,NULL,NULL,NULL,NULL,NULL,mltjsm2eause10x,0,NULL
542,-1,single-stim,-1,541,369816,0.0-11.0-0.520,Symbol/20.png,NULL,NULL,NULL,Green,0,3,NULL,NULL,NULL,NULL,NULL,mltjsm2eause10x,0,NULL
543,-1,single-stim,-1,542,370448,0.0-11.0-0.521,Symbol/2.png,NULL,NULL,NULL,Green,0,4,NULL,NULL,NULL,NULL,NULL,mltjsm2eause10x,0,NULL
544,-1,single-stim,-1,543,371052,0.0-11.0-0.522,Symbol/42.png,NULL,NULL,NULL,Red,0,5,NULL,NULL,NULL,NULL,NULL,mltjsm2eause10x,0,NULL
545,-1,single-stim,-1,544,371677,0.0-11.0-0.523,Symbol/24.png,NULL,NULL,NULL,Green,0,6,NULL,NULL,NULL,NULL,NULL,mltjsm2eause10x,0,NULL
546,-1,single-stim,-1,545,372287,0.0-11.0-0.524,Symbol/36.png,NULL,NULL,NULL,Red,0,7,NULL,NULL,NULL,NULL,NULL,mltjsm2eause10x,0,NULL
547,-1,single-stim,-1,546,372902,0.0-11.0-0.525,Symbol/23.png,NULL,NULL,NULL,Green,0,8,NULL,NULL,NULL,NULL,NULL,mltjsm2eause10x,0,NULL
548,-1,single-stim,-1,547,373525,0.0-11.0-0.526,Symbol/7.png,NULL,NULL,NULL,Green,0,9,NULL,NULL,NULL,NULL,NULL,mltjsm2eause10x,0,NULL
549,-1,single-stim,-1,548,374146,0.0-11.0-0.527,Symbol/6.png,NULL,NULL,NULL,Green,0,10,NULL,NULL,NULL,NULL,NULL,mltjsm2eause10x,0,NULL
550,-1,single-stim,-1,549,374751,0.0-11.0-0.528,Symbol/40.png,NULL,NULL,NULL,Red,0,11,NULL,NULL,NULL,NULL,NULL,mltjsm2eause10x,0,NULL
551,-1,single-stim,-1,550,375369,0.0-11.0-0.529,Symbol/20.png,NULL,NULL,NULL,Green,0,12,NULL,NULL,NULL,NULL,NULL,mltjsm2eause10x,0,NULL
552,-1,single-stim,-1,551,376000,0.0-11.0-0.530,Symbol/4.png,NULL,NULL,NULL,Green,0,13,NULL,NULL,NULL,NULL,NULL,mltjsm2eause10x,0,NULL
553,-1,single-stim,-1,552,376631,0.0-11.0-0.531,Symbol/40.png,NULL,NULL,NULL,Red,0,14,NULL,NULL,NULL,NULL,NULL,mltjsm2eause10x,0,NULL
554,-1,single-stim,-1,553,377236,0.0-11.0-0.532,Symbol/45.png,NULL,NULL,NULL,Red,0,15,NULL,NULL,NULL,NULL,NULL,mltjsm2eause10x,0,NULL
555,-1,single-stim,-1,554,377852,0.0-11.0-0.533,Symbol/25.png,NULL,NULL,NULL,Red,0,16,NULL,NULL,NULL,NULL,NULL,mltjsm2eause10x,0,NULL
556,-1,single-stim,-1,555,378477,0.0-11.0-0.534,Symbol/19.png,NULL,NULL,NULL,Green,0,17,NULL,NULL,NULL,NULL,NULL,mltjsm2eause10x,0,NULL
557,-1,single-stim,-1,556,379082,0.0-11.0-0.535,Symbol/41.png,NULL,NULL,NULL,Red,0,18,NULL,NULL,NULL,NULL,NULL,mltjsm2eause10x,0,NULL
558,-1,single-stim,-1,557,379699,0.0-11.0-0.536,Symbol/46.png,NULL,NULL,NULL,Red,0,19,NULL,NULL,NULL,NULL,NULL,mltjsm2eause10x,0,NULL
559,-1,single-stim,-1,558,380316,0.0-11.0-0.537,Symbol/5.png,NULL,NULL,NULL,Green,0,20,NULL,NULL,NULL,NULL,NULL,mltjsm2eause10x,0,NULL
560,-1,single-stim,-1,559,380932,0.0-11.0-0.538,Symbol/7.png,NULL,NULL,NULL,Green,0,21,NULL,NULL,NULL,NULL,NULL,mltjsm2eause10x,0,NULL
561,-1,single-stim,-1,560,381553,0.0-11.0-0.539,Symbol/46.png,NULL,NULL,NULL,Red,0,22,NULL,NULL,NULL,NULL,NULL,mltjsm2eause10x,0,NULL
562,-1,single-stim,-1,561,382168,0.0-11.0-0.540,Symbol/6.png,NULL,NULL,NULL,Green,0,23,NULL,NULL,NULL,NULL,NULL,mltjsm2eause10x,0,NULL
563,-1,single-stim,-1,562,382798,0.0-11.0-0.541,Symbol/20.png,NULL,NULL,NULL,Green,0,24,NULL,NULL,NULL,NULL,NULL,mltjsm2eause10x,0,NULL
564,-1,single-stim,-1,563,383414,0.0-11.0-0.542,Symbol/2.png,NULL,NULL,NULL,Green,0,25,NULL,NULL,NULL,NULL,NULL,mltjsm2eause10x,0,NULL
565,-1,single-stim,-1,564,384032,0.0-11.0-0.543,Symbol/35.png,NULL,NULL,NULL,Red,0,26,NULL,NULL,NULL,NULL,NULL,mltjsm2eause10x,0,NULL
566,-1,single-stim,-1,565,384660,0.0-11.0-0.544,Symbol/24.png,NULL,NULL,NULL,Green,0,27,NULL,NULL,NULL,NULL,NULL,mltjsm2eause10x,0,NULL
567,-1,single-stim,-1,566,385277,0.0-11.0-0.545,Symbol/23.png,NULL,NULL,NULL,Green,0,28,NULL,NULL,NULL,NULL,NULL,mltjsm2eause10x,0,NULL
568,-1,single-stim,-1,567,385899,0.0-11.0-0.546,Symbol/33.png,NULL,NULL,NULL,Red,0,29,NULL,NULL,NULL,NULL,NULL,mltjsm2eause10x,0,NULL
569,-1,single-stim,-1,568,386507,0.0-11.0-0.547,Symbol/37.png,NULL,NULL,NULL,Red,0,30,NULL,NULL,NULL,NULL,NULL,mltjsm2eause10x,0,NULL
570,-1,single-stim,-1,569,387120,0.0-11.0-0.548,Symbol/32.png,NULL,NULL,NULL,Red,0,31,NULL,NULL,NULL,NULL,NULL,mltjsm2eause10x,0,NULL
571,-1,single-stim,-1,570,387732,0.0-11.0-0.549,Symbol/7.png,NULL,NULL,NULL,Green,0,32,NULL,NULL,NULL,NULL,NULL,mltjsm2eause10x,0,NULL
572,-1,single-stim,-1,571,388349,0.0-11.0-0.550,Symbol/6.png,NULL,NULL,NULL,Green,0,33,NULL,NULL,NULL,NULL,NULL,mltjsm2eause10x,0,NULL
573,-1,single-stim,-1,572,388954,0.0-11.0-0.551,Symbol/20.png,NULL,NULL,NULL,Green,0,34,NULL,NULL,NULL,NULL,NULL,mltjsm2eause10x,0,NULL
574,-1,single-stim,-1,573,389570,0.0-11.0-0.552,Symbol/40.png,NULL,NULL,NULL,Red,0,35,NULL,NULL,NULL,NULL,NULL,mltjsm2eause10x,0,NULL
575,-1,single-stim,-1,574,390200,0.0-11.0-0.553,Symbol/45.png,NULL,NULL,NULL,Red,0,36,NULL,NULL,NULL,NULL,NULL,mltjsm2eause10x,0,NULL
576,-1,single-stim,-1,575,390820,0.0-11.0-0.554,Symbol/4.png,NULL,NULL,NULL,Green,0,37,NULL,NULL,NULL,NULL,NULL,mltjsm2eause10x,0,NULL
577,-1,single-stim,-1,576,391445,0.0-11.0-0.555,Symbol/19.png,NULL,NULL,NULL,Green,0,38,NULL,NULL,NULL,NULL,NULL,mltjsm2eause10x,0,NULL
578,-1,single-stim,-1,577,392066,0.0-11.0-0.556,Symbol/5.png,NULL,NULL,NULL,Green,0,39,NULL,NULL,NULL,NULL,NULL,mltjsm2eause10x,0,NULL
579,-1,single-stim,-1,578,392681,0.0-11.0-0.557,Symbol/14.png,NULL,NULL,NULL,Green,0,40,NULL,NULL,NULL,NULL,NULL,mltjsm2eause10x,0,NULL
580,-1,single-stim,-1,579,393288,0.0-11.0-0.558,Symbol/15.png,NULL,NULL,NULL,Green,0,41,NULL,NULL,NULL,NULL,NULL,mltjsm2eause10x,0,NULL
581,-1,single-stim,-1,580,393901,0.0-11.0-0.559,Symbol/25.png,NULL,NULL,NULL,Red,0,42,NULL,NULL,NULL,NULL,NULL,mltjsm2eause10x,0,NULL
582,-1,single-stim,-1,581,394507,0.0-11.0-0.560,Symbol/41.png,NULL,NULL,NULL,Red,0,43,NULL,NULL,NULL,NULL,NULL,mltjsm2eause10x,0,NULL
583,-1,single-stim,-1,582,395119,0.0-11.0-0.561,Symbol/10.png,NULL,NULL,NULL,Green,0,44,NULL,NULL,NULL,NULL,NULL,mltjsm2eause10x,0,NULL
584,-1,single-stim,-1,583,395722,0.0-11.0-0.562,Symbol/2.png,NULL,NULL,NULL,Green,0,45,NULL,NULL,NULL,NULL,NULL,mltjsm2eause10x,0,NULL
585,-1,single-stim,-1,584,396334,0.0-11.0-0.563,Symbol/24.png,NULL,NULL,NULL,Green,0,46,NULL,NULL,NULL,NULL,NULL,mltjsm2eause10x,0,NULL
586,-1,single-stim,-1,585,396952,0.0-11.0-0.564,Symbol/24.png,NULL,NULL,NULL,Green,1,0,NULL,NULL,NULL,NULL,NULL,mltjsm2eause10x,0,NULL
587,32,single-stim,90,586,397566,0.0-11.0-0.565,Symbol/23.png,NULL,NULL,NULL,Green,0,1,NULL,NULL,NULL,NULL,NULL,mltjsm2eause10x,0,NULL
588,-1,single-stim,-1,587,398181,0.0-11.0-0.566,Symbol/14.png,NULL,NULL,NULL,Green,0,2,NULL,NULL,NULL,NULL,NULL,mltjsm2eause10x,0,NULL
589,-1,single-stim,-1,588,398792,0.0-11.0-0.567,Symbol/15.png,NULL,NULL,NULL,Green,0,3,NULL,NULL,NULL,NULL,NULL,mltjsm2eause10x,0,NULL
590,-1,single-stim,-1,589,399414,0.0-11.0-0.568,Symbol/46.png,NULL,NULL,NULL,Red,0,4,NULL,NULL,NULL,NULL,NULL,mltjsm2eause10x,0,NULL
591,-1,single-stim,-1,590,400020,0.0-11.0-0.569,Symbol/10.png,NULL,NULL,NULL,Green,0,5,NULL,NULL,NULL,NULL,NULL,mltjsm2eause10x,0,NULL
592,-1,single-stim,-1,591,400647,0.0-11.0-0.570,Symbol/7.png,NULL,NULL,NULL,Green,0,6,NULL,NULL,NULL,NULL,NULL,mltjsm2eause10x,0,NULL
593,-1,single-stim,-1,592,401266,0.0-11.0-0.571,Symbol/6.png,NULL,NULL,NULL,Green,0,7,NULL,NULL,NULL,NULL,NULL,mltjsm2eause10x,0,NULL
594,-1,single-stim,-1,593,401882,0.0-11.0-0.572,Symbol/35.png,NULL,NULL,NULL,Red,0,8,NULL,NULL,NULL,NULL,NULL,mltjsm2eause10x,0,NULL
595,-1,single-stim,-1,594,402490,0.0-11.0-0.573,Symbol/33.png,NULL,NULL,NULL,Red,0,9,NULL,NULL,NULL,NULL,NULL,mltjsm2eause10x,0,NULL
596,-1,single-stim,-1,595,403119,0.0-11.0-0.574,Symbol/37.png,NULL,NULL,NULL,Red,0,10,NULL,NULL,NULL,NULL,NULL,mltjsm2eause10x,0,NULL
597,-1,single-stim,-1,596,403733,0.0-11.0-0.575,Symbol/20.png,NULL,NULL,NULL,Green,0,11,NULL,NULL,NULL,NULL,NULL,mltjsm2eause10x,0,NULL
598,-1,single-stim,-1,597,404350,0.0-11.0-0.576,Symbol/32.png,NULL,NULL,NULL,Red,0,12,NULL,NULL,NULL,NULL,NULL,mltjsm2eause10x,0,NULL
599,-1,single-stim,-1,598,404980,0.0-11.0-0.577,Symbol/41.png,NULL,NULL,NULL,Red,0,13,NULL,NULL,NULL,NULL,NULL,mltjsm2eause10x,0,NULL
600,-1,single-stim,-1,599,405585,0.0-11.0-0.578,Symbol/14.png,NULL,NULL,NULL,Green,0,14,NULL,NULL,NULL,NULL,NULL,mltjsm2eause10x,0,NULL
601,-1,single-stim,-1,600,406201,0.0-11.0-0.579,Symbol/46.png,NULL,NULL,NULL,Red,0,15,NULL,NULL,NULL,NULL,NULL,mltjsm2eause10x,0,NULL
602,-1,single-stim,-1,601,406816,0.0-11.0-0.580,Symbol/15.png,NULL,NULL,NULL,Green,0,16,NULL,NULL,NULL,NULL,NULL,mltjsm2eause10x,0,NULL
603,-1,single-stim,-1,602,407428,0.0-11.0-0.581,Symbol/35.png,NULL,NULL,NULL,Red,0,17,NULL,NULL,NULL,NULL,NULL,mltjsm2eause10x,0,NULL
604,-1,single-stim,-1,603,408050,0.0-11.0-0.582,Symbol/10.png,NULL,NULL,NULL,Green,0,18,NULL,NULL,NULL,NULL,NULL,mltjsm2eause10x,0,NULL
605,-1,single-stim,-1,604,408674,0.0-11.0-0.583,Symbol/40.png,NULL,NULL,NULL,Red,0,19,NULL,NULL,NULL,NULL,NULL,mltjsm2eause10x,0,NULL
606,-1,single-stim,-1,605,409282,0.0-11.0-0.584,Symbol/2.png,NULL,NULL,NULL,Green,0,20,NULL,NULL,NULL,NULL,NULL,mltjsm2eause10x,0,NULL
607,-1,single-stim,-1,606,409897,0.0-11.0-0.585,Symbol/2.png,NULL,NULL,NULL,Green,1,0,NULL,NULL,NULL,NULL,NULL,mltjsm2eause10x,0,NULL
608,32,single-stim,59,607,410500,0.0-11.0-0.586,Symbol/45.png,NULL,NULL,NULL,Red,0,1,NULL,NULL,NULL,NULL,NULL,mltjsm2eause10x,0,NULL
609,-1,single-stim,-1,608,411117,0.0-11.0-0.587,Symbol/24.png,NULL,NULL,NULL,Green,0,2,NULL,NULL,NULL,NULL,NULL,mltjsm2eause10x,0,NULL
610,-1,single-stim,-1,609,411731,0.0-11.0-0.588,Symbol/24.png,NULL,NULL,NULL,Green,1,0,NULL,NULL,NULL,NULL,NULL,mltjsm2eause10x,0,NULL
611,32,single-stim,20,610,412335,0.0-11.0-0.589,Symbol/25.png,NULL,NULL,NULL,Red,0,1,NULL,NULL,NULL,NULL,NULL,mltjsm2eause10x,0,NULL
612,-1,single-stim,-1,611,412951,0.0-11.0-0.590,Symbol/27.png,NULL,NULL,NULL,Red,0,2,NULL,NULL,NULL,NULL,NULL,mltjsm2eause10x,0,NULL
613,-1,single-stim,-1,612,413567,0.0-11.0-0.591,Symbol/23.png,NULL,NULL,NULL,Green,0,3,NULL,NULL,NULL,NULL,NULL,mltjsm2eause10x,0,NULL
614,-1,single-stim,-1,613,414185,0.0-11.0-0.592,Symbol/42.png,NULL,NULL,NULL,Red,0,4,NULL,NULL,NULL,NULL,NULL,mltjsm2eause10x,0,NULL
615,-1,single-stim,-1,614,414800,0.0-11.0-0.593,Symbol/7.png,NULL,NULL,NULL,Green,0,5,NULL,NULL,NULL,NULL,NULL,mltjsm2eause10x,0,NULL
616,-1,single-stim,-1,615,415415,0.0-11.0-0.594,Symbol/36.png,NULL,NULL,NULL,Red,0,6,NULL,NULL,NULL,NULL,NULL,mltjsm2eause10x,0,NULL
617,-1,single-stim,-1,616,416019,0.0-11.0-0.595,Symbol/6.png,NULL,NULL,NULL,Green,0,7,NULL,NULL,NULL,NULL,NULL,mltjsm2eause10x,0,NULL
618,-1,single-stim,-1,617,416639,0.0-11.0-0.596,Symbol/33.png,NULL,NULL,NULL,Red,0,8,NULL,NULL,NULL,NULL,NULL,mltjsm2eause10x,0,NULL
619,-1,single-stim,-1,618,417265,0.0-11.0-0.597,Symbol/37.png,NULL,NULL,NULL,Red,0,9,NULL,NULL,NULL,NULL,NULL,mltjsm2eause10x,0,NULL
620,-1,single-stim,-1,619,417887,0.0-11.0-0.598,Symbol/32.png,NULL,NULL,NULL,Red,0,10,NULL,NULL,NULL,NULL,NULL,mltjsm2eause10x,0,NULL
621,-1,single-stim,-1,620,418506,0.0-11.0-0.599,Symbol/20.png,NULL,NULL,NULL,Green,0,11,NULL,NULL,NULL,NULL,NULL,mltjsm2eause10x,0,NULL
622,-1,single-stim,-1,621,419119,0.0-11.0-0.600,Symbol/2.png,NULL,NULL,NULL,Green,0,12,NULL,NULL,NULL,NULL,NULL,mltjsm2eause10x,0,NULL
623,-1,single-stim,-1,622,419732,0.0-11.0-0.601,Symbol/24.png,NULL,NULL,NULL,Green,0,13,NULL,NULL,NULL,NULL,NULL,mltjsm2eause10x,0,NULL
624,-1,single-stim,-1,623,420349,0.0-11.0-0.602,Symbol/40.png,NULL,NULL,NULL,Red,0,14,NULL,NULL,NULL,NULL,NULL,mltjsm2eause10x,0,NULL
625,-1,single-stim,-1,624,420965,0.0-11.0-0.603,Symbol/45.png,NULL,NULL,NULL,Red,0,15,NULL,NULL,NULL,NULL,NULL,mltjsm2eause10x,0,NULL
626,-1,single-stim,-1,625,421582,0.0-11.0-0.604,Symbol/25.png,NULL,NULL,NULL,Red,0,16,NULL,NULL,NULL,NULL,NULL,mltjsm2eause10x,0,NULL
627,-1,single-stim,-1,626,422185,0.0-11.0-0.605,Symbol/23.png,NULL,NULL,NULL,Green,0,17,NULL,NULL,NULL,NULL,NULL,mltjsm2eause10x,0,NULL
628,-1,single-stim,-1,627,422799,0.0-11.0-0.606,Symbol/14.png,NULL,NULL,NULL,Green,0,18,NULL,NULL,NULL,NULL,NULL,mltjsm2eause10x,0,NULL
629,-1,single-stim,-1,628,423428,0.0-11.0-0.607,Symbol/15.png,NULL,NULL,NULL,Green,0,19,NULL,NULL,NULL,NULL,NULL,mltjsm2eause10x,0,NULL
630,-1,single-stim,-1,629,424036,0.0-11.0-0.608,Symbol/10.png,NULL,NULL,NULL,Green,0,20,NULL,NULL,NULL,NULL,NULL,mltjsm2eause10x,0,NULL
631,-1,single-stim,-1,630,424662,0.0-11.0-0.609,Symbol/7.png,NULL,NULL,NULL,Green,0,21,NULL,NULL,NULL,NULL,NULL,mltjsm2eause10x,0,NULL
632,-1,single-stim,-1,631,425269,0.0-11.0-0.610,Symbol/6.png,NULL,NULL,NULL,Green,0,22,NULL,NULL,NULL,NULL,NULL,mltjsm2eause10x,0,NULL
633,-1,single-stim,-1,632,425885,0.0-11.0-0.611,Symbol/20.png,NULL,NULL,NULL,Green,0,23,NULL,NULL,NULL,NULL,NULL,mltjsm2eause10x,0,NULL
634,-1,single-stim,-1,633,426494,0.0-11.0-0.612,Symbol/14.png,NULL,NULL,NULL,Green,0,24,NULL,NULL,NULL,NULL,NULL,mltjsm2eause10x,0,NULL
635,-1,single-stim,-1,634,427115,0.0-11.0-0.613,Symbol/15.png,NULL,NULL,NULL,Green,0,25,NULL,NULL,NULL,NULL,NULL,mltjsm2eause10x,0,NULL
636,-1,single-stim,-1,635,427731,0.0-11.0-0.614,Symbol/10.png,NULL,NULL,NULL,Green,0,26,NULL,NULL,NULL,NULL,NULL,mltjsm2eause10x,0,NULL
637,-1,single-stim,-1,636,428347,0.0-11.0-0.615,Symbol/4.png,NULL,NULL,NULL,Green,0,27,NULL,NULL,NULL,NULL,NULL,mltjsm2eause10x,0,NULL
638,-1,single-stim,-1,637,428965,0.0-11.0-0.616,Symbol/19.png,NULL,NULL,NULL,Green,0,28,NULL,NULL,NULL,NULL,NULL,mltjsm2eause10x,0,NULL
639,-1,single-stim,-1,638,429568,0.0-11.0-0.617,Symbol/5.png,NULL,NULL,NULL,Green,0,29,NULL,NULL,NULL,NULL,NULL,mltjsm2eause10x,0,NULL
640,-1,single-stim,-1,639,430183,0.0-11.0-0.618,Symbol/14.png,NULL,NULL,NULL,Green,0,30,NULL,NULL,NULL,NULL,NULL,mltjsm2eause10x,0,NULL
641,-1,single-stim,-1,640,430804,0.0-11.0-0.619,Symbol/15.png,NULL,NULL,NULL,Green,0,31,NULL,NULL,NULL,NULL,NULL,mltjsm2eause10x,0,NULL
642,-1,single-stim,-1,641,431428,0.0-11.0-0.620,Symbol/10.png,NULL,NULL,NULL,Green,0,32,NULL,NULL,NULL,NULL,NULL,mltjsm2eause10x,0,NULL
643,-1,single-stim,-1,642,432035,0.0-11.0-0.621,Symbol/7.png,NULL,NULL,NULL,Green,0,33,NULL,NULL,NULL,NULL,NULL,mltjsm2eause10x,0,NULL
644,-1,single-stim,-1,643,432660,0.0-11.0-0.622,Symbol/6.png,NULL,NULL,NULL,Green,0,34,NULL,NULL,NULL,NULL,NULL,mltjsm2eause10x,0,NULL
645,-1,single-stim,-1,644,433283,0.0-11.0-0.623,Symbol/20.png,NULL,NULL,NULL,Green,0,35,NULL,NULL,NULL,NULL,NULL,mltjsm2eause10x,0,NULL
646,71,single-stim,2379,645,435871,0.0-12.0-0.0,"<p> Which was the color you were focused on? ",NULL,NULL,1,NULL,NULL,NULL,71,1,color-check,NULL,NULL,mltjsm2eause10x,0,NULL
647,32,text,28242,646,464114,0.0-13.0,NULL,NULL,NULL,NULL,NULL,NULL,NULL,NULL,NULL,NULL,NULL,NULL,mltjsm2eause10x,0,NULL
648,-1,single-stim,-1,647,464519,0.0-14.0-0.0,Symbol/62.png,NULL,NULL,NULL,NULL,NULL,NULL,NULL,NULL,NULL,NULL,NULL,mltjsm2eause10x,0,NULL
649,-1,single-stim,-1,648,465131,0.0-14.0-1.0,Symbol/63.png,NULL,NULL,NULL,NULL,NULL,NULL,NULL,NULL,NULL,NULL,NULL,mltjsm2eause10x,0,NULL
650,-1,single-stim,-1,649,465733,0.0-14.0-2.0,Symbol/58.png,NULL,NULL,NULL,NULL,NULL,NULL,NULL,NULL,NULL,NULL,NULL,mltjsm2eause10x,0,NULL
651,-1,single-stim,-1,650,467147,0.0-14.0-3.0,Symbol/50.png,NULL,NULL,NULL,NULL,NULL,NULL,NULL,NULL,NULL,NULL,NULL,mltjsm2eause10x,0,NULL
652,-1,single-stim,-1,651,467748,0.0-14.0-4.0,Symbol/63.png,NULL,NULL,NULL,NULL,NULL,NULL,NULL,NULL,NULL,NULL,NULL,mltjsm2eause10x,0,NULL
653,-1,single-stim,-1,652,468351,0.0-14.0-5.0,Symbol/53.png,NULL,NULL,NULL,NULL,NULL,NULL,NULL,NULL,NULL,NULL,NULL,mltjsm2eause10x,0,NULL
654,70,single-stim,1235,653,469802,0.0-14.0-6.0,"<p> Which of the two sequences seemed more fa",NULL,NULL,1,NULL,NULL,NULL,70,NULL,test,NULL,NULL,mltjsm2eause10x,0,1
655,-1,single-stim,-1,654,471218,0.0-14.0-0.1,Symbol/62.png,NULL,NULL,NULL,NULL,NULL,NULL,NULL,NULL,NULL,NULL,NULL,mltjsm2eause10x,0,NULL
656,-1,single-stim,-1,655,471824,0.0-14.0-1.1,Symbol/63.png,NULL,NULL,NULL,NULL,NULL,NULL,NULL,NULL,NULL,NULL,NULL,mltjsm2eause10x,0,NULL
657,-1,single-stim,-1,656,472440,0.0-14.0-2.1,Symbol/58.png,NULL,NULL,NULL,NULL,NULL,NULL,NULL,NULL,NULL,NULL,NULL,mltjsm2eause10x,0,NULL
658,-1,single-stim,-1,657,473842,0.0-14.0-3.1,Symbol/55.png,NULL,NULL,NULL,NULL,NULL,NULL,NULL,NULL,NULL,NULL,NULL,mltjsm2eause10x,0,NULL
659,-1,single-stim,-1,658,474461,0.0-14.0-4.1,Symbol/72.png,NULL,NULL,NULL,NULL,NULL,NULL,NULL,NULL,NULL,NULL,NULL,mltjsm2eause10x,0,NULL
660,-1,single-stim,-1,659,475073,0.0-14.0-5.1,Symbol/58.png,NULL,NULL,NULL,NULL,NULL,NULL,NULL,NULL,NULL,NULL,NULL,mltjsm2eause10x,0,NULL
661,70,single-stim,700,660,475984,0.0-14.0-6.1,"<p> Which of the two sequences seemed more fa",NULL,NULL,1,NULL,NULL,NULL,70,NULL,test,NULL,NULL,mltjsm2eause10x,0,1
662,-1,single-stim,-1,661,477410,0.0-14.0-0.2,Symbol/55.png,NULL,NULL,NULL,NULL,NULL,NULL,NULL,NULL,NULL,NULL,NULL,mltjsm2eause10x,0,NULL
663,-1,single-stim,-1,662,478025,0.0-14.0-1.2,Symbol/54.png,NULL,NULL,NULL,NULL,NULL,NULL,NULL,NULL,NULL,NULL,NULL,mltjsm2eause10x,0,NULL
664,-1,single-stim,-1,663,478642,0.0-14.0-2.2,Symbol/68.png,NULL,NULL,NULL,NULL,NULL,NULL,NULL,NULL,NULL,NULL,NULL,mltjsm2eause10x,0,NULL
665,-1,single-stim,-1,664,480045,0.0-14.0-3.2,Symbol/55.png,NULL,NULL,NULL,NULL,NULL,NULL,NULL,NULL,NULL,NULL,NULL,mltjsm2eause10x,0,NULL
666,-1,single-stim,-1,665,480659,0.0-14.0-4.2,Symbol/72.png,NULL,NULL,NULL,NULL,NULL,NULL,NULL,NULL,NULL,NULL,NULL,mltjsm2eause10x,0,NULL
667,-1,single-stim,-1,666,481276,0.0-14.0-5.2,Symbol/58.png,NULL,NULL,NULL,NULL,NULL,NULL,NULL,NULL,NULL,NULL,NULL,mltjsm2eause10x,0,NULL
668,74,single-stim,1335,667,482826,0.0-14.0-6.2,"<p> Which of the two sequences seemed more fa",NULL,NULL,0,NULL,NULL,NULL,70,NULL,test,NULL,NULL,mltjsm2eause10x,0,1
669,-1,single-stim,-1,668,484234,0.0-14.0-0.3,Symbol/55.png,NULL,NULL,NULL,NULL,NULL,NULL,NULL,NULL,NULL,NULL,NULL,mltjsm2eause10x,0,NULL
670,-1,single-stim,-1,669,484847,0.0-14.0-1.3,Symbol/54.png,NULL,NULL,NULL,NULL,NULL,NULL,NULL,NULL,NULL,NULL,NULL,mltjsm2eause10x,0,NULL
671,-1,single-stim,-1,670,485460,0.0-14.0-2.3,Symbol/68.png,NULL,NULL,NULL,NULL,NULL,NULL,NULL,NULL,NULL,NULL,NULL,mltjsm2eause10x,0,NULL
672,-1,single-stim,-1,671,486878,0.0-14.0-3.3,Symbol/62.png,NULL,NULL,NULL,NULL,NULL,NULL,NULL,NULL,NULL,NULL,NULL,mltjsm2eause10x,0,NULL
673,-1,single-stim,-1,672,487491,0.0-14.0-4.3,Symbol/67.png,NULL,NULL,NULL,NULL,NULL,NULL,NULL,NULL,NULL,NULL,NULL,mltjsm2eause10x,0,NULL
674,-1,single-stim,-1,673,488106,0.0-14.0-5.3,Symbol/68.png,NULL,NULL,NULL,NULL,NULL,NULL,NULL,NULL,NULL,NULL,NULL,mltjsm2eause10x,0,NULL
675,70,single-stim,473,674,488790,0.0-14.0-6.3,"<p> Which of the two sequences seemed more fa",NULL,NULL,1,NULL,NULL,NULL,70,NULL,test,NULL,NULL,mltjsm2eause10x,0,1
676,-1,single-stim,-1,675,490200,0.0-14.0-0.4,Symbol/52.png,NULL,NULL,NULL,NULL,NULL,NULL,NULL,NULL,NULL,NULL,NULL,mltjsm2eause10x,0,NULL
677,-1,single-stim,-1,676,490823,0.0-14.0-1.4,Symbol/67.png,NULL,NULL,NULL,NULL,NULL,NULL,NULL,NULL,NULL,NULL,NULL,mltjsm2eause10x,0,NULL
678,-1,single-stim,-1,677,491434,0.0-14.0-2.4,Symbol/53.png,NULL,NULL,NULL,NULL,NULL,NULL,NULL,NULL,NULL,NULL,NULL,mltjsm2eause10x,0,NULL
679,-1,single-stim,-1,678,492851,0.0-14.0-3.4,Symbol/52.png,NULL,NULL,NULL,NULL,NULL,NULL,NULL,NULL,NULL,NULL,NULL,mltjsm2eause10x,0,NULL
680,-1,single-stim,-1,679,493458,0.0-14.0-4.4,Symbol/54.png,NULL,NULL,NULL,NULL,NULL,NULL,NULL,NULL,NULL,NULL,NULL,mltjsm2eause10x,0,NULL
681,-1,single-stim,-1,680,494067,0.0-14.0-5.4,Symbol/71.png,NULL,NULL,NULL,NULL,NULL,NULL,NULL,NULL,NULL,NULL,NULL,mltjsm2eause10x,0,NULL
682,70,single-stim,636,681,494906,0.0-14.0-6.4,"<p> Which of the two sequences seemed more fa",NULL,NULL,1,NULL,NULL,NULL,70,NULL,test,NULL,NULL,mltjsm2eause10x,0,1
683,-1,single-stim,-1,682,496318,0.0-14.0-0.5,Symbol/52.png,NULL,NULL,NULL,NULL,NULL,NULL,NULL,NULL,NULL,NULL,NULL,mltjsm2eause10x,0,NULL
684,-1,single-stim,-1,683,496945,0.0-14.0-1.5,Symbol/54.png,NULL,NULL,NULL,NULL,NULL,NULL,NULL,NULL,NULL,NULL,NULL,mltjsm2eause10x,0,NULL
685,-1,single-stim,-1,684,497567,0.0-14.0-2.5,Symbol/71.png,NULL,NULL,NULL,NULL,NULL,NULL,NULL,NULL,NULL,NULL,NULL,mltjsm2eause10x,0,NULL
686,-1,single-stim,-1,685,498991,0.0-14.0-3.5,Symbol/50.png,NULL,NULL,NULL,NULL,NULL,NULL,NULL,NULL,NULL,NULL,NULL,mltjsm2eause10x,0,NULL
687,-1,single-stim,-1,686,499599,0.0-14.0-4.5,Symbol/72.png,NULL,NULL,NULL,NULL,NULL,NULL,NULL,NULL,NULL,NULL,NULL,mltjsm2eause10x,0,NULL
688,-1,single-stim,-1,687,500223,0.0-14.0-5.5,Symbol/71.png,NULL,NULL,NULL,NULL,NULL,NULL,NULL,NULL,NULL,NULL,NULL,mltjsm2eause10x,0,NULL
689,70,single-stim,1542,688,501972,0.0-14.0-6.5,"<p> Which of the two sequences seemed more fa",NULL,NULL,0,NULL,NULL,NULL,74,NULL,test,NULL,NULL,mltjsm2eause10x,0,1
690,-1,single-stim,-1,689,503389,0.0-14.0-0.6,Symbol/65.png,NULL,NULL,NULL,NULL,NULL,NULL,NULL,NULL,NULL,NULL,NULL,mltjsm2eause10x,0,NULL
691,-1,single-stim,-1,690,504011,0.0-14.0-1.6,Symbol/70.png,NULL,NULL,NULL,NULL,NULL,NULL,NULL,NULL,NULL,NULL,NULL,mltjsm2eause10x,0,NULL
692,-1,single-stim,-1,691,504629,0.0-14.0-2.6,Symbol/59.png,NULL,NULL,NULL,NULL,NULL,NULL,NULL,NULL,NULL,NULL,NULL,mltjsm2eause10x,0,NULL
693,-1,single-stim,-1,692,506047,0.0-14.0-3.6,Symbol/65.png,NULL,NULL,NULL,NULL,NULL,NULL,NULL,NULL,NULL,NULL,NULL,mltjsm2eause10x,0,NULL
694,-1,single-stim,-1,693,506663,0.0-14.0-4.6,Symbol/61.png,NULL,NULL,NULL,NULL,NULL,NULL,NULL,NULL,NULL,NULL,NULL,mltjsm2eause10x,0,NULL
695,-1,single-stim,-1,694,507276,0.0-14.0-5.6,Symbol/49.png,NULL,NULL,NULL,NULL,NULL,NULL,NULL,NULL,NULL,NULL,NULL,mltjsm2eause10x,0,NULL
696,74,single-stim,425,695,507913,0.0-14.0-6.6,"<p> Which of the two sequences seemed more fa",NULL,NULL,0,NULL,NULL,NULL,70,NULL,test,NULL,NULL,mltjsm2eause10x,0,0
697,-1,single-stim,-1,696,509316,0.0-14.0-0.7,Symbol/64.png,NULL,NULL,NULL,NULL,NULL,NULL,NULL,NULL,NULL,NULL,NULL,mltjsm2eause10x,0,NULL
698,-1,single-stim,-1,697,509932,0.0-14.0-1.7,Symbol/66.png,NULL,NULL,NULL,NULL,NULL,NULL,NULL,NULL,NULL,NULL,NULL,mltjsm2eause10x,0,NULL
699,-1,single-stim,-1,698,510552,0.0-14.0-2.7,Symbol/59.png,NULL,NULL,NULL,NULL,NULL,NULL,NULL,NULL,NULL,NULL,NULL,mltjsm2eause10x,0,NULL
700,-1,single-stim,-1,699,511978,0.0-14.0-3.7,Symbol/64.png,NULL,NULL,NULL,NULL,NULL,NULL,NULL,NULL,NULL,NULL,NULL,mltjsm2eause10x,0,NULL
701,-1,single-stim,-1,700,512584,0.0-14.0-4.7,Symbol/69.png,NULL,NULL,NULL,NULL,NULL,NULL,NULL,NULL,NULL,NULL,NULL,mltjsm2eause10x,0,NULL
702,-1,single-stim,-1,701,513216,0.0-14.0-5.7,Symbol/49.png,NULL,NULL,NULL,NULL,NULL,NULL,NULL,NULL,NULL,NULL,NULL,mltjsm2eause10x,0,NULL
703,74,single-stim,272,702,513702,0.0-14.0-6.7,"<p> Which of the two sequences seemed more fa",NULL,NULL,1,NULL,NULL,NULL,74,NULL,test,NULL,NULL,mltjsm2eause10x,0,0
704,-1,single-stim,-1,703,515107,0.0-14.0-0.8,Symbol/50.png,NULL,NULL,NULL,NULL,NULL,NULL,NULL,NULL,NULL,NULL,NULL,mltjsm2eause10x,0,NULL
705,-1,single-stim,-1,704,515716,0.0-14.0-1.8,Symbol/63.png,NULL,NULL,NULL,NULL,NULL,NULL,NULL,NULL,NULL,NULL,NULL,mltjsm2eause10x,0,NULL
706,-1,single-stim,-1,705,516333,0.0-14.0-2.8,Symbol/53.png,NULL,NULL,NULL,NULL,NULL,NULL,NULL,NULL,NULL,NULL,NULL,mltjsm2eause10x,0,NULL
707,-1,single-stim,-1,706,517738,0.0-14.0-3.8,Symbol/52.png,NULL,NULL,NULL,NULL,NULL,NULL,NULL,NULL,NULL,NULL,NULL,mltjsm2eause10x,0,NULL
708,-1,single-stim,-1,707,518353,0.0-14.0-4.8,Symbol/67.png,NULL,NULL,NULL,NULL,NULL,NULL,NULL,NULL,NULL,NULL,NULL,mltjsm2eause10x,0,NULL
709,-1,single-stim,-1,708,518980,0.0-14.0-5.8,Symbol/53.png,NULL,NULL,NULL,NULL,NULL,NULL,NULL,NULL,NULL,NULL,NULL,mltjsm2eause10x,0,NULL
710,74,single-stim,1883,709,521065,0.0-14.0-6.8,"<p> Which of the two sequences seemed more fa",NULL,NULL,1,NULL,NULL,NULL,74,NULL,test,NULL,NULL,mltjsm2eause10x,0,1
711,-1,single-stim,-1,710,522476,0.0-14.0-0.9,Symbol/64.png,NULL,NULL,NULL,NULL,NULL,NULL,NULL,NULL,NULL,NULL,NULL,mltjsm2eause10x,0,NULL
712,-1,single-stim,-1,711,523084,0.0-14.0-1.9,Symbol/66.png,NULL,NULL,NULL,NULL,NULL,NULL,NULL,NULL,NULL,NULL,NULL,mltjsm2eause10x,0,NULL
713,-1,single-stim,-1,712,523701,0.0-14.0-2.9,Symbol/59.png,NULL,NULL,NULL,NULL,NULL,NULL,NULL,NULL,NULL,NULL,NULL,mltjsm2eause10x,0,NULL
714,-1,single-stim,-1,713,525109,0.0-14.0-3.9,Symbol/51.png,NULL,NULL,NULL,NULL,NULL,NULL,NULL,NULL,NULL,NULL,NULL,mltjsm2eause10x,0,NULL
715,-1,single-stim,-1,714,525717,0.0-14.0-4.9,Symbol/66.png,NULL,NULL,NULL,NULL,NULL,NULL,NULL,NULL,NULL,NULL,NULL,mltjsm2eause10x,0,NULL
716,-1,single-stim,-1,715,526333,0.0-14.0-5.9,Symbol/60.png,NULL,NULL,NULL,NULL,NULL,NULL,NULL,NULL,NULL,NULL,NULL,mltjsm2eause10x,0,NULL
717,74,single-stim,641,716,527190,0.0-14.0-6.9,"<p> Which of the two sequences seemed more fa",NULL,NULL,1,NULL,NULL,NULL,74,NULL,test,NULL,NULL,mltjsm2eause10x,0,0
718,-1,single-stim,-1,717,528598,0.0-14.0-0.10,Symbol/52.png,NULL,NULL,NULL,NULL,NULL,NULL,NULL,NULL,NULL,NULL,NULL,mltjsm2eause10x,0,NULL
719,-1,single-stim,-1,718,529200,0.0-14.0-1.10,Symbol/54.png,NULL,NULL,NULL,NULL,NULL,NULL,NULL,NULL,NULL,NULL,NULL,mltjsm2eause10x,0,NULL
720,-1,single-stim,-1,719,529820,0.0-14.0-2.10,Symbol/71.png,NULL,NULL,NULL,NULL,NULL,NULL,NULL,NULL,NULL,NULL,NULL,mltjsm2eause10x,0,NULL
721,-1,single-stim,-1,720,531223,0.0-14.0-3.10,Symbol/62.png,NULL,NULL,NULL,NULL,NULL,NULL,NULL,NULL,NULL,NULL,NULL,mltjsm2eause10x,0,NULL
722,-1,single-stim,-1,721,531832,0.0-14.0-4.10,Symbol/63.png,NULL,NULL,NULL,NULL,NULL,NULL,NULL,NULL,NULL,NULL,NULL,mltjsm2eause10x,0,NULL
723,-1,single-stim,-1,722,532445,0.0-14.0-5.10,Symbol/58.png,NULL,NULL,NULL,NULL,NULL,NULL,NULL,NULL,NULL,NULL,NULL,mltjsm2eause10x,0,NULL
724,74,single-stim,961,723,533610,0.0-14.0-6.10,"<p> Which of the two sequences seemed more fa",NULL,NULL,1,NULL,NULL,NULL,74,NULL,test,NULL,NULL,mltjsm2eause10x,0,1
725,-1,single-stim,-1,724,535016,0.0-14.0-0.11,Symbol/55.png,NULL,NULL,NULL,NULL,NULL,NULL,NULL,NULL,NULL,NULL,NULL,mltjsm2eause10x,0,NULL
726,-1,single-stim,-1,725,535630,0.0-14.0-1.11,Symbol/54.png,NULL,NULL,NULL,NULL,NULL,NULL,NULL,NULL,NULL,NULL,NULL,mltjsm2eause10x,0,NULL
727,-1,single-stim,-1,726,536239,0.0-14.0-2.11,Symbol/68.png,NULL,NULL,NULL,NULL,NULL,NULL,NULL,NULL,NULL,NULL,NULL,mltjsm2eause10x,0,NULL
728,-1,single-stim,-1,727,537646,0.0-14.0-3.11,Symbol/55.png,NULL,NULL,NULL,NULL,NULL,NULL,NULL,NULL,NULL,NULL,NULL,mltjsm2eause10x,0,NULL
729,-1,single-stim,-1,728,538253,0.0-14.0-4.11,Symbol/72.png,NULL,NULL,NULL,NULL,NULL,NULL,NULL,NULL,NULL,NULL,NULL,mltjsm2eause10x,0,NULL
730,-1,single-stim,-1,729,538883,0.0-14.0-5.11,Symbol/58.png,NULL,NULL,NULL,NULL,NULL,NULL,NULL,NULL,NULL,NULL,NULL,mltjsm2eause10x,0,NULL
731,70,single-stim,284,730,539382,0.0-14.0-6.11,"<p> Which of the two sequences seemed more fa",NULL,NULL,1,NULL,NULL,NULL,70,NULL,test,NULL,NULL,mltjsm2eause10x,0,1
732,-1,single-stim,-1,731,540784,0.0-14.0-0.12,Symbol/57.png,NULL,NULL,NULL,NULL,NULL,NULL,NULL,NULL,NULL,NULL,NULL,mltjsm2eause10x,0,NULL
733,-1,single-stim,-1,732,541400,0.0-14.0-1.12,Symbol/69.png,NULL,NULL,NULL,NULL,NULL,NULL,NULL,NULL,NULL,NULL,NULL,mltjsm2eause10x,0,NULL
734,-1,single-stim,-1,733,542017,0.0-14.0-2.12,Symbol/60.png,NULL,NULL,NULL,NULL,NULL,NULL,NULL,NULL,NULL,NULL,NULL,mltjsm2eause10x,0,NULL
735,-1,single-stim,-1,734,543443,0.0-14.0-3.12,Symbol/65.png,NULL,NULL,NULL,NULL,NULL,NULL,NULL,NULL,NULL,NULL,NULL,mltjsm2eause10x,0,NULL
736,-1,single-stim,-1,735,544054,0.0-14.0-4.12,Symbol/70.png,NULL,NULL,NULL,NULL,NULL,NULL,NULL,NULL,NULL,NULL,NULL,mltjsm2eause10x,0,NULL
737,-1,single-stim,-1,736,544675,0.0-14.0-5.12,Symbol/59.png,NULL,NULL,NULL,NULL,NULL,NULL,NULL,NULL,NULL,NULL,NULL,mltjsm2eause10x,0,NULL
738,74,single-stim,281,737,545162,0.0-14.0-6.12,"<p> Which of the two sequences seemed more fa",NULL,NULL,1,NULL,NULL,NULL,74,NULL,test,NULL,NULL,mltjsm2eause10x,0,0
739,-1,single-stim,-1,738,546581,0.0-14.0-0.13,Symbol/51.png,NULL,NULL,NULL,NULL,NULL,NULL,NULL,NULL,NULL,NULL,NULL,mltjsm2eause10x,0,NULL
